success,trial_type,trial_index,time_elapsed,internal_node_id,protocol_sum,subject_identifier,subject_sum,STUDY_ID,PROLIFIC_PID,SESSION_ID,followed_instructions,view_history,rt,set_size,target_present,RT,response,target_position,distractor_positions,jitter,correct_response,test_part,correct,stimulus,key_press,search_type,responses
1.0,fullscreen,0,7198,0.0-0.0,aaaab,5d6ebbf926b44400175f445a,"[191, 44, 230, 97, 27, 172, 94, 38, 227, 234, 149, 151, 225, 38, 54, 33, 10, 31, 221, 159, 234, 11, 147, 104, 176, 55, 124, 209, 27, 247, 81, 5]",5f96dd9824dc39060be2c67f,5d6ebbf926b44400175f445a,5f96f6ac156c7e036d366de8,True,,,,,,,,,,,,,,,,
,instructions,1,30945,0.0-1.0,aaaab,5d6ebbf926b44400175f445a,"[191, 44, 230, 97, 27, 172, 94, 38, 227, 234, 149, 151, 225, 38, 54, 33, 10, 31, 221, 159, 234, 11, 147, 104, 176, 55, 124, 209, 27, 247, 81, 5]",5f96dd9824dc39060be2c67f,5d6ebbf926b44400175f445a,5f96f6ac156c7e036d366de8,True,"[{""page_index"":0,""viewing_time"":2802.034999999989},{""page_index"":1,""viewing_time"":12576.57499999999},{""page_index"":2,""viewing_time"":5051.660000000029},{""page_index"":3,""viewing_time"":3312.8350000000028}]",23743.945,,,,,,,,,,,,,,
,p5vs_yn,2,33827,0.0-2.0-1.0-0.0,aaaab,5d6ebbf926b44400175f445a,"[191, 44, 230, 97, 27, 172, 94, 38, 227, 234, 149, 151, 225, 38, 54, 33, 10, 31, 221, 159, 234, 11, 147, 104, 176, 55, 124, 209, 27, 247, 81, 5]",5f96dd9824dc39060be2c67f,5d6ebbf926b44400175f445a,5f96f6ac156c7e036d366de8,True,,,3.0,0.0,1242.6916095096603,f,"[-0.099999999999999, -0.099999999999999]","[[-0.30000000000000004, 0.30000000000000004], [0.099999999999999, 0.099999999999999]]",403.5333904903382,f,practice,1.0,,,,
,html-keyboard-response,3,34835,0.0-2.0-1.0-1.0,aaaab,5d6ebbf926b44400175f445a,"[191, 44, 230, 97, 27, 172, 94, 38, 227, 234, 149, 151, 225, 38, 54, 33, 10, 31, 221, 159, 234, 11, 147, 104, 176, 55, 124, 209, 27, 247, 81, 5]",5f96dd9824dc39060be2c67f,5d6ebbf926b44400175f445a,5f96f6ac156c7e036d366de8,True,,,,,,,,,,,,,"<div style=""width:150px;height:56px;font-size:30px;text-align:center;"">correct!</div>",,,
,p5vs_yn,4,37122,0.0-2.0-1.0-0.1,aaaab,5d6ebbf926b44400175f445a,"[191, 44, 230, 97, 27, 172, 94, 38, 227, 234, 149, 151, 225, 38, 54, 33, 10, 31, 221, 159, 234, 11, 147, 104, 176, 55, 124, 209, 27, 247, 81, 5]",5f96dd9824dc39060be2c67f,5d6ebbf926b44400175f445a,5f96f6ac156c7e036d366de8,True,,,3.0,1.0,740.2623570867436,j,"[0.099999999999999, -0.30000000000000004]","[[-0.30000000000000004, -0.30000000000000004], [-0.099999999999999, 0.099999999999999]]",329.3576429132372,j,practice,1.0,,,,
,html-keyboard-response,5,38145,0.0-2.0-1.0-1.1,aaaab,5d6ebbf926b44400175f445a,"[191, 44, 230, 97, 27, 172, 94, 38, 227, 234, 149, 151, 225, 38, 54, 33, 10, 31, 221, 159, 234, 11, 147, 104, 176, 55, 124, 209, 27, 247, 81, 5]",5f96dd9824dc39060be2c67f,5d6ebbf926b44400175f445a,5f96f6ac156c7e036d366de8,True,,,,,,,,,,,,,"<div style=""width:150px;height:56px;font-size:30px;text-align:center;"">correct!</div>",,,
,p5vs_yn,6,40787,0.0-2.0-1.0-0.2,aaaab,5d6ebbf926b44400175f445a,"[191, 44, 230, 97, 27, 172, 94, 38, 227, 234, 149, 151, 225, 38, 54, 33, 10, 31, 221, 159, 234, 11, 147, 104, 176, 55, 124, 209, 27, 247, 81, 5]",5f96dd9824dc39060be2c67f,5d6ebbf926b44400175f445a,5f96f6ac156c7e036d366de8,True,,,3.0,0.0,560.4881882897389,f,"[-0.099999999999999, -0.30000000000000004]","[[-0.30000000000000004, 0.30000000000000004], [0.30000000000000004, 0.099999999999999]]",866.4168117102236,f,practice,1.0,,,,
,html-keyboard-response,7,41790,0.0-2.0-1.0-1.2,aaaab,5d6ebbf926b44400175f445a,"[191, 44, 230, 97, 27, 172, 94, 38, 227, 234, 149, 151, 225, 38, 54, 33, 10, 31, 221, 159, 234, 11, 147, 104, 176, 55, 124, 209, 27, 247, 81, 5]",5f96dd9824dc39060be2c67f,5d6ebbf926b44400175f445a,5f96f6ac156c7e036d366de8,True,,,,,,,,,,,,,"<div style=""width:150px;height:56px;font-size:30px;text-align:center;"">correct!</div>",,,
,p5vs_yn,8,44236,0.0-2.0-1.0-0.3,aaaab,5d6ebbf926b44400175f445a,"[191, 44, 230, 97, 27, 172, 94, 38, 227, 234, 149, 151, 225, 38, 54, 33, 10, 31, 221, 159, 234, 11, 147, 104, 176, 55, 124, 209, 27, 247, 81, 5]",5f96dd9824dc39060be2c67f,5d6ebbf926b44400175f445a,5f96f6ac156c7e036d366de8,True,,,3.0,1.0,551.0163498480979,j,"[0.099999999999999, -0.30000000000000004]","[[-0.30000000000000004, 0.099999999999999], [0.099999999999999, 0.099999999999999]]",671.4286501519382,j,practice,1.0,,,,
,html-keyboard-response,9,45265,0.0-2.0-1.0-1.3,aaaab,5d6ebbf926b44400175f445a,"[191, 44, 230, 97, 27, 172, 94, 38, 227, 234, 149, 151, 225, 38, 54, 33, 10, 31, 221, 159, 234, 11, 147, 104, 176, 55, 124, 209, 27, 247, 81, 5]",5f96dd9824dc39060be2c67f,5d6ebbf926b44400175f445a,5f96f6ac156c7e036d366de8,True,,,,,,,,,,,,,"<div style=""width:150px;height:56px;font-size:30px;text-align:center;"">correct!</div>",,,
,p5vs_yn,10,47471,0.0-2.0-1.0-0.4,aaaab,5d6ebbf926b44400175f445a,"[191, 44, 230, 97, 27, 172, 94, 38, 227, 234, 149, 151, 225, 38, 54, 33, 10, 31, 221, 159, 234, 11, 147, 104, 176, 55, 124, 209, 27, 247, 81, 5]",5f96dd9824dc39060be2c67f,5d6ebbf926b44400175f445a,5f96f6ac156c7e036d366de8,True,,,3.0,1.0,571.4514859706615,j,"[-0.099999999999999, 0.099999999999999]","[[-0.099999999999999, 0.30000000000000004], [0.30000000000000004, 0.30000000000000004]]",406.82351402938366,j,practice,1.0,,,,
,html-keyboard-response,11,48473,0.0-2.0-1.0-1.4,aaaab,5d6ebbf926b44400175f445a,"[191, 44, 230, 97, 27, 172, 94, 38, 227, 234, 149, 151, 225, 38, 54, 33, 10, 31, 221, 159, 234, 11, 147, 104, 176, 55, 124, 209, 27, 247, 81, 5]",5f96dd9824dc39060be2c67f,5d6ebbf926b44400175f445a,5f96f6ac156c7e036d366de8,True,,,,,,,,,,,,,"<div style=""width:150px;height:56px;font-size:30px;text-align:center;"">correct!</div>",,,
,p5vs_yn,12,50953,0.0-2.0-1.0-0.5,aaaab,5d6ebbf926b44400175f445a,"[191, 44, 230, 97, 27, 172, 94, 38, 227, 234, 149, 151, 225, 38, 54, 33, 10, 31, 221, 159, 234, 11, 147, 104, 176, 55, 124, 209, 27, 247, 81, 5]",5f96dd9824dc39060be2c67f,5d6ebbf926b44400175f445a,5f96f6ac156c7e036d366de8,True,,,3.0,0.0,511.86592163178284,f,"[0.099999999999999, -0.30000000000000004]","[[-0.30000000000000004, 0.099999999999999], [-0.099999999999999, 0.099999999999999]]",752.984078368172,f,practice,1.0,,,,
,html-keyboard-response,13,51955,0.0-2.0-1.0-1.5,aaaab,5d6ebbf926b44400175f445a,"[191, 44, 230, 97, 27, 172, 94, 38, 227, 234, 149, 151, 225, 38, 54, 33, 10, 31, 221, 159, 234, 11, 147, 104, 176, 55, 124, 209, 27, 247, 81, 5]",5f96dd9824dc39060be2c67f,5d6ebbf926b44400175f445a,5f96f6ac156c7e036d366de8,True,,,,,,,,,,,,,"<div style=""width:150px;height:56px;font-size:30px;text-align:center;"">correct!</div>",,,
,instructions,14,78668,0.0-3.0,aaaab,5d6ebbf926b44400175f445a,"[191, 44, 230, 97, 27, 172, 94, 38, 227, 234, 149, 151, 225, 38, 54, 33, 10, 31, 221, 159, 234, 11, 147, 104, 176, 55, 124, 209, 27, 247, 81, 5]",5f96dd9824dc39060be2c67f,5d6ebbf926b44400175f445a,5f96f6ac156c7e036d366de8,True,"[{""page_index"":0,""viewing_time"":16088.730000000003},{""page_index"":1,""viewing_time"":10619.794999999998}]",26709.150000000016,,,,,,,,,,,,,,
,instructions,15,90960,0.0-4.0-0.0,aaaab,5d6ebbf926b44400175f445a,"[191, 44, 230, 97, 27, 172, 94, 38, 227, 234, 149, 151, 225, 38, 54, 33, 10, 31, 221, 159, 234, 11, 147, 104, 176, 55, 124, 209, 27, 247, 81, 5]",5f96dd9824dc39060be2c67f,5d6ebbf926b44400175f445a,5f96f6ac156c7e036d366de8,True,"[{""page_index"":0,""viewing_time"":12290.075000000012}]",12290.930000000008,,,,,,,,,,,,,,
,p5vs_yn,16,92857,0.0-4.0-1.0-0.0,aaaab,5d6ebbf926b44400175f445a,"[191, 44, 230, 97, 27, 172, 94, 38, 227, 234, 149, 151, 225, 38, 54, 33, 10, 31, 221, 159, 234, 11, 147, 104, 176, 55, 124, 209, 27, 247, 81, 5]",5f96dd9824dc39060be2c67f,5d6ebbf926b44400175f445a,5f96f6ac156c7e036d366de8,True,,,8.0,1.0,663.8134622635844,j,"[0.16666666666666602, -0.33333333333333304]","[[-0.16666666666666602, 0.33333333333333304], [0.33333333333333304, 0.16666666666666602], [0, 0.16666666666666602], [-0.16666666666666602, -0.33333333333333304], [0, 0], [-0.16666666666666602, 0.16666666666666602], [0.16666666666666602, -0.16666666666666602]]",17.171537736430764,j,main,1.0,,,conjunction,
,html-keyboard-response,17,93859,0.0-4.0-1.0-1.0,aaaab,5d6ebbf926b44400175f445a,"[191, 44, 230, 97, 27, 172, 94, 38, 227, 234, 149, 151, 225, 38, 54, 33, 10, 31, 221, 159, 234, 11, 147, 104, 176, 55, 124, 209, 27, 247, 81, 5]",5f96dd9824dc39060be2c67f,5d6ebbf926b44400175f445a,5f96f6ac156c7e036d366de8,True,,,,,,,,,,,,,"<div style=""width:150px;height:56px;font-size:30px;text-align:center;"">correct!</div>",,,
,p5vs_yn,18,96270,0.0-4.0-1.0-0.1,aaaab,5d6ebbf926b44400175f445a,"[191, 44, 230, 97, 27, 172, 94, 38, 227, 234, 149, 151, 225, 38, 54, 33, 10, 31, 221, 159, 234, 11, 147, 104, 176, 55, 124, 209, 27, 247, 81, 5]",5f96dd9824dc39060be2c67f,5d6ebbf926b44400175f445a,5f96f6ac156c7e036d366de8,True,,,4.0,0.0,503.23349804538884,f,"[-0.16666666666666602, 0.33333333333333304]","[[0, 0], [-0.33333333333333304, -0.33333333333333304], [-0.33333333333333304, -0.16666666666666602]]",695.6915019545704,f,main,1.0,,,conjunction,
,html-keyboard-response,19,97273,0.0-4.0-1.0-1.1,aaaab,5d6ebbf926b44400175f445a,"[191, 44, 230, 97, 27, 172, 94, 38, 227, 234, 149, 151, 225, 38, 54, 33, 10, 31, 221, 159, 234, 11, 147, 104, 176, 55, 124, 209, 27, 247, 81, 5]",5f96dd9824dc39060be2c67f,5d6ebbf926b44400175f445a,5f96f6ac156c7e036d366de8,True,,,,,,,,,,,,,"<div style=""width:150px;height:56px;font-size:30px;text-align:center;"">correct!</div>",,,
,p5vs_yn,20,99704,0.0-4.0-1.0-0.2,aaaab,5d6ebbf926b44400175f445a,"[191, 44, 230, 97, 27, 172, 94, 38, 227, 234, 149, 151, 225, 38, 54, 33, 10, 31, 221, 159, 234, 11, 147, 104, 176, 55, 124, 209, 27, 247, 81, 5]",5f96dd9824dc39060be2c67f,5d6ebbf926b44400175f445a,5f96f6ac156c7e036d366de8,True,,,8.0,0.0,535.224447659115,f,"[-0.33333333333333304, 0]","[[0.16666666666666602, 0.16666666666666602], [0.33333333333333304, -0.33333333333333304], [-0.33333333333333304, 0.16666666666666602], [-0.16666666666666602, -0.16666666666666602], [0.16666666666666602, 0], [-0.16666666666666602, 0.16666666666666602], [0, -0.16666666666666602]]",679.1005523409694,f,main,1.0,,,conjunction,
,html-keyboard-response,21,100706,0.0-4.0-1.0-1.2,aaaab,5d6ebbf926b44400175f445a,"[191, 44, 230, 97, 27, 172, 94, 38, 227, 234, 149, 151, 225, 38, 54, 33, 10, 31, 221, 159, 234, 11, 147, 104, 176, 55, 124, 209, 27, 247, 81, 5]",5f96dd9824dc39060be2c67f,5d6ebbf926b44400175f445a,5f96f6ac156c7e036d366de8,True,,,,,,,,,,,,,"<div style=""width:150px;height:56px;font-size:30px;text-align:center;"">correct!</div>",,,
,p5vs_yn,22,103420,0.0-4.0-1.0-0.3,aaaab,5d6ebbf926b44400175f445a,"[191, 44, 230, 97, 27, 172, 94, 38, 227, 234, 149, 151, 225, 38, 54, 33, 10, 31, 221, 159, 234, 11, 147, 104, 176, 55, 124, 209, 27, 247, 81, 5]",5f96dd9824dc39060be2c67f,5d6ebbf926b44400175f445a,5f96f6ac156c7e036d366de8,True,,,8.0,1.0,509.081028776156,j,"[-0.16666666666666602, 0]","[[0.33333333333333304, 0], [0.16666666666666602, 0.16666666666666602], [0.16666666666666602, -0.16666666666666602], [0.16666666666666602, 0.33333333333333304], [0.33333333333333304, -0.16666666666666602], [-0.33333333333333304, 0], [-0.33333333333333304, 0.33333333333333304]]",984.9989712238312,j,main,1.0,,,shape,
,html-keyboard-response,23,104422,0.0-4.0-1.0-1.3,aaaab,5d6ebbf926b44400175f445a,"[191, 44, 230, 97, 27, 172, 94, 38, 227, 234, 149, 151, 225, 38, 54, 33, 10, 31, 221, 159, 234, 11, 147, 104, 176, 55, 124, 209, 27, 247, 81, 5]",5f96dd9824dc39060be2c67f,5d6ebbf926b44400175f445a,5f96f6ac156c7e036d366de8,True,,,,,,,,,,,,,"<div style=""width:150px;height:56px;font-size:30px;text-align:center;"">correct!</div>",,,
,p5vs_yn,24,106469,0.0-4.0-1.0-0.4,aaaab,5d6ebbf926b44400175f445a,"[191, 44, 230, 97, 27, 172, 94, 38, 227, 234, 149, 151, 225, 38, 54, 33, 10, 31, 221, 159, 234, 11, 147, 104, 176, 55, 124, 209, 27, 247, 81, 5]",5f96dd9824dc39060be2c67f,5d6ebbf926b44400175f445a,5f96f6ac156c7e036d366de8,True,,,4.0,1.0,413.5526758700871,j,"[0.16666666666666602, 0]","[[-0.16666666666666602, 0.16666666666666602], [0, 0.33333333333333304], [-0.16666666666666602, -0.16666666666666602]]",423.8973241299391,j,main,1.0,,,conjunction,
,html-keyboard-response,25,107472,0.0-4.0-1.0-1.4,aaaab,5d6ebbf926b44400175f445a,"[191, 44, 230, 97, 27, 172, 94, 38, 227, 234, 149, 151, 225, 38, 54, 33, 10, 31, 221, 159, 234, 11, 147, 104, 176, 55, 124, 209, 27, 247, 81, 5]",5f96dd9824dc39060be2c67f,5d6ebbf926b44400175f445a,5f96f6ac156c7e036d366de8,True,,,,,,,,,,,,,"<div style=""width:150px;height:56px;font-size:30px;text-align:center;"">correct!</div>",,,
,p5vs_yn,26,109786,0.0-4.0-1.0-0.5,aaaab,5d6ebbf926b44400175f445a,"[191, 44, 230, 97, 27, 172, 94, 38, 227, 234, 149, 151, 225, 38, 54, 33, 10, 31, 221, 159, 234, 11, 147, 104, 176, 55, 124, 209, 27, 247, 81, 5]",5f96dd9824dc39060be2c67f,5d6ebbf926b44400175f445a,5f96f6ac156c7e036d366de8,True,,,4.0,0.0,464.4534641303617,f,"[-0.33333333333333304, 0.33333333333333304]","[[0, -0.16666666666666602], [0, 0.33333333333333304], [0.33333333333333304, -0.16666666666666602]]",639.0215358696878,f,main,1.0,,,shape,
,html-keyboard-response,27,110789,0.0-4.0-1.0-1.5,aaaab,5d6ebbf926b44400175f445a,"[191, 44, 230, 97, 27, 172, 94, 38, 227, 234, 149, 151, 225, 38, 54, 33, 10, 31, 221, 159, 234, 11, 147, 104, 176, 55, 124, 209, 27, 247, 81, 5]",5f96dd9824dc39060be2c67f,5d6ebbf926b44400175f445a,5f96f6ac156c7e036d366de8,True,,,,,,,,,,,,,"<div style=""width:150px;height:56px;font-size:30px;text-align:center;"">correct!</div>",,,
,p5vs_yn,28,113253,0.0-4.0-1.0-0.6,aaaab,5d6ebbf926b44400175f445a,"[191, 44, 230, 97, 27, 172, 94, 38, 227, 234, 149, 151, 225, 38, 54, 33, 10, 31, 221, 159, 234, 11, 147, 104, 176, 55, 124, 209, 27, 247, 81, 5]",5f96dd9824dc39060be2c67f,5d6ebbf926b44400175f445a,5f96f6ac156c7e036d366de8,True,,,8.0,0.0,407.6361456483719,f,"[-0.16666666666666602, 0]","[[0, 0.33333333333333304], [-0.16666666666666602, 0.33333333333333304], [0.33333333333333304, 0], [0.16666666666666602, 0.33333333333333304], [-0.33333333333333304, 0.16666666666666602], [-0.33333333333333304, -0.33333333333333304], [0, -0.16666666666666602]]",844.3138543516397,f,main,1.0,,,shape,
,html-keyboard-response,29,114255,0.0-4.0-1.0-1.6,aaaab,5d6ebbf926b44400175f445a,"[191, 44, 230, 97, 27, 172, 94, 38, 227, 234, 149, 151, 225, 38, 54, 33, 10, 31, 221, 159, 234, 11, 147, 104, 176, 55, 124, 209, 27, 247, 81, 5]",5f96dd9824dc39060be2c67f,5d6ebbf926b44400175f445a,5f96f6ac156c7e036d366de8,True,,,,,,,,,,,,,"<div style=""width:150px;height:56px;font-size:30px;text-align:center;"">correct!</div>",,,
,p5vs_yn,30,115953,0.0-4.0-1.0-0.7,aaaab,5d6ebbf926b44400175f445a,"[191, 44, 230, 97, 27, 172, 94, 38, 227, 234, 149, 151, 225, 38, 54, 33, 10, 31, 221, 159, 234, 11, 147, 104, 176, 55, 124, 209, 27, 247, 81, 5]",5f96dd9824dc39060be2c67f,5d6ebbf926b44400175f445a,5f96f6ac156c7e036d366de8,True,,,4.0,1.0,406.7402025528281,j,"[0.16666666666666602, 0.33333333333333304]","[[0.33333333333333304, 0.16666666666666602], [0.33333333333333304, 0], [0.16666666666666602, 0]]",83.35479744710028,j,main,1.0,,,shape,
,html-keyboard-response,31,116956,0.0-4.0-1.0-1.7,aaaab,5d6ebbf926b44400175f445a,"[191, 44, 230, 97, 27, 172, 94, 38, 227, 234, 149, 151, 225, 38, 54, 33, 10, 31, 221, 159, 234, 11, 147, 104, 176, 55, 124, 209, 27, 247, 81, 5]",5f96dd9824dc39060be2c67f,5d6ebbf926b44400175f445a,5f96f6ac156c7e036d366de8,True,,,,,,,,,,,,,"<div style=""width:150px;height:56px;font-size:30px;text-align:center;"">correct!</div>",,,
,p5vs_yn,32,119502,0.0-4.0-1.0-0.8,aaaab,5d6ebbf926b44400175f445a,"[191, 44, 230, 97, 27, 172, 94, 38, 227, 234, 149, 151, 225, 38, 54, 33, 10, 31, 221, 159, 234, 11, 147, 104, 176, 55, 124, 209, 27, 247, 81, 5]",5f96dd9824dc39060be2c67f,5d6ebbf926b44400175f445a,5f96f6ac156c7e036d366de8,True,,,4.0,0.0,664.337531181256,f,"[0, 0.33333333333333304]","[[-0.16666666666666602, -0.16666666666666602], [0, 0], [0, -0.33333333333333304]]",674.0024688187987,f,main,1.0,,,shape,
,html-keyboard-response,33,120506,0.0-4.0-1.0-1.8,aaaab,5d6ebbf926b44400175f445a,"[191, 44, 230, 97, 27, 172, 94, 38, 227, 234, 149, 151, 225, 38, 54, 33, 10, 31, 221, 159, 234, 11, 147, 104, 176, 55, 124, 209, 27, 247, 81, 5]",5f96dd9824dc39060be2c67f,5d6ebbf926b44400175f445a,5f96f6ac156c7e036d366de8,True,,,,,,,,,,,,,"<div style=""width:150px;height:56px;font-size:30px;text-align:center;"">correct!</div>",,,
,p5vs_yn,34,122602,0.0-4.0-1.0-0.9,aaaab,5d6ebbf926b44400175f445a,"[191, 44, 230, 97, 27, 172, 94, 38, 227, 234, 149, 151, 225, 38, 54, 33, 10, 31, 221, 159, 234, 11, 147, 104, 176, 55, 124, 209, 27, 247, 81, 5]",5f96dd9824dc39060be2c67f,5d6ebbf926b44400175f445a,5f96f6ac156c7e036d366de8,True,,,8.0,0.0,418.36648712107853,f,"[-0.33333333333333304, 0.16666666666666602]","[[0.16666666666666602, -0.16666666666666602], [0.16666666666666602, 0], [0.33333333333333304, -0.33333333333333304], [-0.16666666666666602, -0.33333333333333304], [-0.33333333333333304, -0.33333333333333304], [0, -0.16666666666666602], [-0.16666666666666602, 0.16666666666666602]]",463.6685128789395,f,main,1.0,,,shape,
,html-keyboard-response,35,123604,0.0-4.0-1.0-1.9,aaaab,5d6ebbf926b44400175f445a,"[191, 44, 230, 97, 27, 172, 94, 38, 227, 234, 149, 151, 225, 38, 54, 33, 10, 31, 221, 159, 234, 11, 147, 104, 176, 55, 124, 209, 27, 247, 81, 5]",5f96dd9824dc39060be2c67f,5d6ebbf926b44400175f445a,5f96f6ac156c7e036d366de8,True,,,,,,,,,,,,,"<div style=""width:150px;height:56px;font-size:30px;text-align:center;"">correct!</div>",,,
,p5vs_yn,36,126156,0.0-4.0-1.0-0.10,aaaab,5d6ebbf926b44400175f445a,"[191, 44, 230, 97, 27, 172, 94, 38, 227, 234, 149, 151, 225, 38, 54, 33, 10, 31, 221, 159, 234, 11, 147, 104, 176, 55, 124, 209, 27, 247, 81, 5]",5f96dd9824dc39060be2c67f,5d6ebbf926b44400175f445a,5f96f6ac156c7e036d366de8,True,,,8.0,1.0,376.9854204955918,j,"[-0.33333333333333304, -0.16666666666666602]","[[0.33333333333333304, 0], [0.33333333333333304, 0.33333333333333304], [0.33333333333333304, 0.16666666666666602], [0.16666666666666602, 0.33333333333333304], [0, 0.33333333333333304], [0.33333333333333304, -0.16666666666666602], [0, -0.33333333333333304]]",958.4445795044303,j,main,1.0,,,conjunction,
,html-keyboard-response,37,127159,0.0-4.0-1.0-1.10,aaaab,5d6ebbf926b44400175f445a,"[191, 44, 230, 97, 27, 172, 94, 38, 227, 234, 149, 151, 225, 38, 54, 33, 10, 31, 221, 159, 234, 11, 147, 104, 176, 55, 124, 209, 27, 247, 81, 5]",5f96dd9824dc39060be2c67f,5d6ebbf926b44400175f445a,5f96f6ac156c7e036d366de8,True,,,,,,,,,,,,,"<div style=""width:150px;height:56px;font-size:30px;text-align:center;"">correct!</div>",,,
,p5vs_yn,38,129719,0.0-4.0-1.0-0.11,aaaab,5d6ebbf926b44400175f445a,"[191, 44, 230, 97, 27, 172, 94, 38, 227, 234, 149, 151, 225, 38, 54, 33, 10, 31, 221, 159, 234, 11, 147, 104, 176, 55, 124, 209, 27, 247, 81, 5]",5f96dd9824dc39060be2c67f,5d6ebbf926b44400175f445a,5f96f6ac156c7e036d366de8,True,,,4.0,0.0,459.4363210057345,f,"[0, 0]","[[-0.16666666666666602, 0.33333333333333304], [-0.16666666666666602, -0.33333333333333304], [0, 0.16666666666666602]]",883.7536789942533,f,main,1.0,,,conjunction,
,html-keyboard-response,39,130722,0.0-4.0-1.0-1.11,aaaab,5d6ebbf926b44400175f445a,"[191, 44, 230, 97, 27, 172, 94, 38, 227, 234, 149, 151, 225, 38, 54, 33, 10, 31, 221, 159, 234, 11, 147, 104, 176, 55, 124, 209, 27, 247, 81, 5]",5f96dd9824dc39060be2c67f,5d6ebbf926b44400175f445a,5f96f6ac156c7e036d366de8,True,,,,,,,,,,,,,"<div style=""width:150px;height:56px;font-size:30px;text-align:center;"">correct!</div>",,,
,p5vs_yn,40,133252,0.0-4.0-1.0-0.12,aaaab,5d6ebbf926b44400175f445a,"[191, 44, 230, 97, 27, 172, 94, 38, 227, 234, 149, 151, 225, 38, 54, 33, 10, 31, 221, 159, 234, 11, 147, 104, 176, 55, 124, 209, 27, 247, 81, 5]",5f96dd9824dc39060be2c67f,5d6ebbf926b44400175f445a,5f96f6ac156c7e036d366de8,True,,,4.0,1.0,386.4752584914386,j,"[-0.33333333333333304, -0.33333333333333304]","[[0, -0.16666666666666602], [-0.16666666666666602, 0.16666666666666602], [-0.33333333333333304, 0.16666666666666602]]",932.5397415086627,j,main,1.0,,,conjunction,
,html-keyboard-response,41,134255,0.0-4.0-1.0-1.12,aaaab,5d6ebbf926b44400175f445a,"[191, 44, 230, 97, 27, 172, 94, 38, 227, 234, 149, 151, 225, 38, 54, 33, 10, 31, 221, 159, 234, 11, 147, 104, 176, 55, 124, 209, 27, 247, 81, 5]",5f96dd9824dc39060be2c67f,5d6ebbf926b44400175f445a,5f96f6ac156c7e036d366de8,True,,,,,,,,,,,,,"<div style=""width:150px;height:56px;font-size:30px;text-align:center;"">correct!</div>",,,
,p5vs_yn,42,136792,0.0-4.0-1.0-0.13,aaaab,5d6ebbf926b44400175f445a,"[191, 44, 230, 97, 27, 172, 94, 38, 227, 234, 149, 151, 225, 38, 54, 33, 10, 31, 221, 159, 234, 11, 147, 104, 176, 55, 124, 209, 27, 247, 81, 5]",5f96dd9824dc39060be2c67f,5d6ebbf926b44400175f445a,5f96f6ac156c7e036d366de8,True,,,4.0,1.0,368.9788471875072,j,"[0.16666666666666602, 0.16666666666666602]","[[0.16666666666666602, 0.33333333333333304], [0.33333333333333304, 0.33333333333333304], [-0.33333333333333304, 0.33333333333333304]]",961.6661528125405,j,main,1.0,,,shape,
,html-keyboard-response,43,137800,0.0-4.0-1.0-1.13,aaaab,5d6ebbf926b44400175f445a,"[191, 44, 230, 97, 27, 172, 94, 38, 227, 234, 149, 151, 225, 38, 54, 33, 10, 31, 221, 159, 234, 11, 147, 104, 176, 55, 124, 209, 27, 247, 81, 5]",5f96dd9824dc39060be2c67f,5d6ebbf926b44400175f445a,5f96f6ac156c7e036d366de8,True,,,,,,,,,,,,,"<div style=""width:150px;height:56px;font-size:30px;text-align:center;"">correct!</div>",,,
,p5vs_yn,44,140120,0.0-4.0-1.0-0.14,aaaab,5d6ebbf926b44400175f445a,"[191, 44, 230, 97, 27, 172, 94, 38, 227, 234, 149, 151, 225, 38, 54, 33, 10, 31, 221, 159, 234, 11, 147, 104, 176, 55, 124, 209, 27, 247, 81, 5]",5f96dd9824dc39060be2c67f,5d6ebbf926b44400175f445a,5f96f6ac156c7e036d366de8,True,,,8.0,1.0,396.8262202437618,j,"[0, 0.16666666666666602]","[[0.33333333333333304, 0.16666666666666602], [-0.33333333333333304, -0.33333333333333304], [-0.16666666666666602, 0], [0.16666666666666602, 0.16666666666666602], [0.33333333333333304, -0.33333333333333304], [0, 0.33333333333333304], [0.33333333333333304, -0.16666666666666602]]",706.9487797562033,j,main,1.0,,,shape,
,html-keyboard-response,45,141123,0.0-4.0-1.0-1.14,aaaab,5d6ebbf926b44400175f445a,"[191, 44, 230, 97, 27, 172, 94, 38, 227, 234, 149, 151, 225, 38, 54, 33, 10, 31, 221, 159, 234, 11, 147, 104, 176, 55, 124, 209, 27, 247, 81, 5]",5f96dd9824dc39060be2c67f,5d6ebbf926b44400175f445a,5f96f6ac156c7e036d366de8,True,,,,,,,,,,,,,"<div style=""width:150px;height:56px;font-size:30px;text-align:center;"">correct!</div>",,,
,p5vs_yn,46,143302,0.0-4.0-1.0-0.15,aaaab,5d6ebbf926b44400175f445a,"[191, 44, 230, 97, 27, 172, 94, 38, 227, 234, 149, 151, 225, 38, 54, 33, 10, 31, 221, 159, 234, 11, 147, 104, 176, 55, 124, 209, 27, 247, 81, 5]",5f96dd9824dc39060be2c67f,5d6ebbf926b44400175f445a,5f96f6ac156c7e036d366de8,True,,,8.0,0.0,564.6997363787086,f,"[-0.16666666666666602, -0.16666666666666602]","[[0.33333333333333304, 0.16666666666666602], [-0.16666666666666602, 0.16666666666666602], [0, 0], [0.16666666666666602, 0], [-0.33333333333333304, -0.16666666666666602], [-0.16666666666666602, -0.33333333333333304], [0, -0.16666666666666602]]",407.45026362128556,f,main,1.0,,,conjunction,
,html-keyboard-response,47,144304,0.0-4.0-1.0-1.15,aaaab,5d6ebbf926b44400175f445a,"[191, 44, 230, 97, 27, 172, 94, 38, 227, 234, 149, 151, 225, 38, 54, 33, 10, 31, 221, 159, 234, 11, 147, 104, 176, 55, 124, 209, 27, 247, 81, 5]",5f96dd9824dc39060be2c67f,5d6ebbf926b44400175f445a,5f96f6ac156c7e036d366de8,True,,,,,,,,,,,,,"<div style=""width:150px;height:56px;font-size:30px;text-align:center;"">correct!</div>",,,
,instructions,48,173183,0.0-4.0-2.0,aaaab,5d6ebbf926b44400175f445a,"[191, 44, 230, 97, 27, 172, 94, 38, 227, 234, 149, 151, 225, 38, 54, 33, 10, 31, 221, 159, 234, 11, 147, 104, 176, 55, 124, 209, 27, 247, 81, 5]",5f96dd9824dc39060be2c67f,5d6ebbf926b44400175f445a,5f96f6ac156c7e036d366de8,True,"[{""page_index"":0,""viewing_time"":28875.909999999974}]",28876.800000000017,,,,,,,,,,,,,,
,call-function,49,173185,0.0-4.0-3.0,aaaab,5d6ebbf926b44400175f445a,"[191, 44, 230, 97, 27, 172, 94, 38, 227, 234, 149, 151, 225, 38, 54, 33, 10, 31, 221, 159, 234, 11, 147, 104, 176, 55, 124, 209, 27, 247, 81, 5]",5f96dd9824dc39060be2c67f,5d6ebbf926b44400175f445a,5f96f6ac156c7e036d366de8,True,,,,,,,,,,,,,,,,
,instructions,50,174099,0.0-4.0-0.1,aaaab,5d6ebbf926b44400175f445a,"[191, 44, 230, 97, 27, 172, 94, 38, 227, 234, 149, 151, 225, 38, 54, 33, 10, 31, 221, 159, 234, 11, 147, 104, 176, 55, 124, 209, 27, 247, 81, 5]",5f96dd9824dc39060be2c67f,5d6ebbf926b44400175f445a,5f96f6ac156c7e036d366de8,True,"[{""page_index"":0,""viewing_time"":913.5700000000361}]",914.2149999999965,,,,,,,,,,,,,,
,p5vs_yn,51,176852,0.0-4.0-1.1-0.16,aaaab,5d6ebbf926b44400175f445a,"[191, 44, 230, 97, 27, 172, 94, 38, 227, 234, 149, 151, 225, 38, 54, 33, 10, 31, 221, 159, 234, 11, 147, 104, 176, 55, 124, 209, 27, 247, 81, 5]",5f96dd9824dc39060be2c67f,5d6ebbf926b44400175f445a,5f96f6ac156c7e036d366de8,True,,,8.0,0.0,562.8065046231786,f,"[-0.16666666666666602, -0.33333333333333304]","[[0.33333333333333304, -0.16666666666666602], [0.16666666666666602, 0], [0, 0.33333333333333304], [0.33333333333333304, -0.33333333333333304], [-0.33333333333333304, -0.33333333333333304], [0, -0.16666666666666602], [0.33333333333333304, 0.33333333333333304]]",981.9484953768551,f,main,1.0,,,conjunction,
,html-keyboard-response,52,177856,0.0-4.0-1.1-1.16,aaaab,5d6ebbf926b44400175f445a,"[191, 44, 230, 97, 27, 172, 94, 38, 227, 234, 149, 151, 225, 38, 54, 33, 10, 31, 221, 159, 234, 11, 147, 104, 176, 55, 124, 209, 27, 247, 81, 5]",5f96dd9824dc39060be2c67f,5d6ebbf926b44400175f445a,5f96f6ac156c7e036d366de8,True,,,,,,,,,,,,,"<div style=""width:150px;height:56px;font-size:30px;text-align:center;"">correct!</div>",,,
,p5vs_yn,53,180219,0.0-4.0-1.1-0.17,aaaab,5d6ebbf926b44400175f445a,"[191, 44, 230, 97, 27, 172, 94, 38, 227, 234, 149, 151, 225, 38, 54, 33, 10, 31, 221, 159, 234, 11, 147, 104, 176, 55, 124, 209, 27, 247, 81, 5]",5f96dd9824dc39060be2c67f,5d6ebbf926b44400175f445a,5f96f6ac156c7e036d366de8,True,,,4.0,0.0,640.4467940332543,f,"[0.33333333333333304, 0.16666666666666602]","[[0.16666666666666602, -0.16666666666666602], [-0.33333333333333304, -0.16666666666666602], [-0.16666666666666602, 0]]",515.063205966726,f,main,1.0,,,conjunction,
,html-keyboard-response,54,181222,0.0-4.0-1.1-1.17,aaaab,5d6ebbf926b44400175f445a,"[191, 44, 230, 97, 27, 172, 94, 38, 227, 234, 149, 151, 225, 38, 54, 33, 10, 31, 221, 159, 234, 11, 147, 104, 176, 55, 124, 209, 27, 247, 81, 5]",5f96dd9824dc39060be2c67f,5d6ebbf926b44400175f445a,5f96f6ac156c7e036d366de8,True,,,,,,,,,,,,,"<div style=""width:150px;height:56px;font-size:30px;text-align:center;"">correct!</div>",,,
,p5vs_yn,55,183147,0.0-4.0-1.1-0.18,aaaab,5d6ebbf926b44400175f445a,"[191, 44, 230, 97, 27, 172, 94, 38, 227, 234, 149, 151, 225, 38, 54, 33, 10, 31, 221, 159, 234, 11, 147, 104, 176, 55, 124, 209, 27, 247, 81, 5]",5f96dd9824dc39060be2c67f,5d6ebbf926b44400175f445a,5f96f6ac156c7e036d366de8,True,,,4.0,1.0,411.7317556212365,j,"[-0.16666666666666602, -0.16666666666666602]","[[-0.16666666666666602, 0.16666666666666602], [-0.33333333333333304, 0], [0, -0.33333333333333304]]",302.70324437879026,j,main,1.0,,,shape,
,html-keyboard-response,56,184151,0.0-4.0-1.1-1.18,aaaab,5d6ebbf926b44400175f445a,"[191, 44, 230, 97, 27, 172, 94, 38, 227, 234, 149, 151, 225, 38, 54, 33, 10, 31, 221, 159, 234, 11, 147, 104, 176, 55, 124, 209, 27, 247, 81, 5]",5f96dd9824dc39060be2c67f,5d6ebbf926b44400175f445a,5f96f6ac156c7e036d366de8,True,,,,,,,,,,,,,"<div style=""width:150px;height:56px;font-size:30px;text-align:center;"">correct!</div>",,,
,p5vs_yn,57,186085,0.0-4.0-1.1-0.19,aaaab,5d6ebbf926b44400175f445a,"[191, 44, 230, 97, 27, 172, 94, 38, 227, 234, 149, 151, 225, 38, 54, 33, 10, 31, 221, 159, 234, 11, 147, 104, 176, 55, 124, 209, 27, 247, 81, 5]",5f96dd9824dc39060be2c67f,5d6ebbf926b44400175f445a,5f96f6ac156c7e036d366de8,True,,,4.0,1.0,408.81998756347457,j,"[-0.33333333333333304, 0]","[[0.16666666666666602, 0.16666666666666602], [0, 0.33333333333333304], [0, 0]]",315.0200124364346,j,main,1.0,,,conjunction,
,html-keyboard-response,58,187088,0.0-4.0-1.1-1.19,aaaab,5d6ebbf926b44400175f445a,"[191, 44, 230, 97, 27, 172, 94, 38, 227, 234, 149, 151, 225, 38, 54, 33, 10, 31, 221, 159, 234, 11, 147, 104, 176, 55, 124, 209, 27, 247, 81, 5]",5f96dd9824dc39060be2c67f,5d6ebbf926b44400175f445a,5f96f6ac156c7e036d366de8,True,,,,,,,,,,,,,"<div style=""width:150px;height:56px;font-size:30px;text-align:center;"">correct!</div>",,,
,p5vs_yn,59,189052,0.0-4.0-1.1-0.20,aaaab,5d6ebbf926b44400175f445a,"[191, 44, 230, 97, 27, 172, 94, 38, 227, 234, 149, 151, 225, 38, 54, 33, 10, 31, 221, 159, 234, 11, 147, 104, 176, 55, 124, 209, 27, 247, 81, 5]",5f96dd9824dc39060be2c67f,5d6ebbf926b44400175f445a,5f96f6ac156c7e036d366de8,True,,,8.0,0.0,409.85602431889856,f,"[0.16666666666666602, 0.33333333333333304]","[[0.33333333333333304, 0.33333333333333304], [0, 0.16666666666666602], [0.16666666666666602, -0.33333333333333304], [-0.33333333333333304, 0.16666666666666602], [-0.16666666666666602, 0], [0.16666666666666602, 0.16666666666666602], [0.33333333333333304, 0]]",346.7939756810665,f,main,1.0,,,shape,
,html-keyboard-response,60,190054,0.0-4.0-1.1-1.20,aaaab,5d6ebbf926b44400175f445a,"[191, 44, 230, 97, 27, 172, 94, 38, 227, 234, 149, 151, 225, 38, 54, 33, 10, 31, 221, 159, 234, 11, 147, 104, 176, 55, 124, 209, 27, 247, 81, 5]",5f96dd9824dc39060be2c67f,5d6ebbf926b44400175f445a,5f96f6ac156c7e036d366de8,True,,,,,,,,,,,,,"<div style=""width:150px;height:56px;font-size:30px;text-align:center;"">correct!</div>",,,
,p5vs_yn,61,191652,0.0-4.0-1.1-0.21,aaaab,5d6ebbf926b44400175f445a,"[191, 44, 230, 97, 27, 172, 94, 38, 227, 234, 149, 151, 225, 38, 54, 33, 10, 31, 221, 159, 234, 11, 147, 104, 176, 55, 124, 209, 27, 247, 81, 5]",5f96dd9824dc39060be2c67f,5d6ebbf926b44400175f445a,5f96f6ac156c7e036d366de8,True,,,8.0,1.0,360.10632138635265,j,"[0, 0.33333333333333304]","[[0, -0.16666666666666602], [0.33333333333333304, 0], [-0.16666666666666602, 0.16666666666666602], [0.16666666666666602, -0.33333333333333304], [0.16666666666666602, 0], [0.16666666666666602, 0.33333333333333304], [0, 0]]",22.73867861367762,j,main,1.0,,,shape,
,html-keyboard-response,62,192655,0.0-4.0-1.1-1.21,aaaab,5d6ebbf926b44400175f445a,"[191, 44, 230, 97, 27, 172, 94, 38, 227, 234, 149, 151, 225, 38, 54, 33, 10, 31, 221, 159, 234, 11, 147, 104, 176, 55, 124, 209, 27, 247, 81, 5]",5f96dd9824dc39060be2c67f,5d6ebbf926b44400175f445a,5f96f6ac156c7e036d366de8,True,,,,,,,,,,,,,"<div style=""width:150px;height:56px;font-size:30px;text-align:center;"">correct!</div>",,,
,p5vs_yn,63,195202,0.0-4.0-1.1-0.22,aaaab,5d6ebbf926b44400175f445a,"[191, 44, 230, 97, 27, 172, 94, 38, 227, 234, 149, 151, 225, 38, 54, 33, 10, 31, 221, 159, 234, 11, 147, 104, 176, 55, 124, 209, 27, 247, 81, 5]",5f96dd9824dc39060be2c67f,5d6ebbf926b44400175f445a,5f96f6ac156c7e036d366de8,True,,,4.0,0.0,408.57276863520383,f,"[-0.33333333333333304, 0.16666666666666602]","[[-0.16666666666666602, -0.33333333333333304], [0.33333333333333304, 0.16666666666666602], [0.16666666666666602, -0.33333333333333304]]",928.8072313647717,f,main,1.0,,,shape,
,html-keyboard-response,64,196206,0.0-4.0-1.1-1.22,aaaab,5d6ebbf926b44400175f445a,"[191, 44, 230, 97, 27, 172, 94, 38, 227, 234, 149, 151, 225, 38, 54, 33, 10, 31, 221, 159, 234, 11, 147, 104, 176, 55, 124, 209, 27, 247, 81, 5]",5f96dd9824dc39060be2c67f,5d6ebbf926b44400175f445a,5f96f6ac156c7e036d366de8,True,,,,,,,,,,,,,"<div style=""width:150px;height:56px;font-size:30px;text-align:center;"">correct!</div>",,,
,p5vs_yn,65,198720,0.0-4.0-1.1-0.23,aaaab,5d6ebbf926b44400175f445a,"[191, 44, 230, 97, 27, 172, 94, 38, 227, 234, 149, 151, 225, 38, 54, 33, 10, 31, 221, 159, 234, 11, 147, 104, 176, 55, 124, 209, 27, 247, 81, 5]",5f96dd9824dc39060be2c67f,5d6ebbf926b44400175f445a,5f96f6ac156c7e036d366de8,True,,,8.0,1.0,533.5043985460652,j,"[0.33333333333333304, -0.16666666666666602]","[[-0.33333333333333304, 0.33333333333333304], [-0.16666666666666602, 0.16666666666666602], [-0.33333333333333304, 0], [0.33333333333333304, 0.16666666666666602], [-0.33333333333333304, -0.16666666666666602], [0.16666666666666602, 0], [-0.33333333333333304, 0.16666666666666602]]",769.2406014539301,j,main,1.0,,,conjunction,
,html-keyboard-response,66,199726,0.0-4.0-1.1-1.23,aaaab,5d6ebbf926b44400175f445a,"[191, 44, 230, 97, 27, 172, 94, 38, 227, 234, 149, 151, 225, 38, 54, 33, 10, 31, 221, 159, 234, 11, 147, 104, 176, 55, 124, 209, 27, 247, 81, 5]",5f96dd9824dc39060be2c67f,5d6ebbf926b44400175f445a,5f96f6ac156c7e036d366de8,True,,,,,,,,,,,,,"<div style=""width:150px;height:56px;font-size:30px;text-align:center;"">correct!</div>",,,
,p5vs_yn,67,202268,0.0-4.0-1.1-0.24,aaaab,5d6ebbf926b44400175f445a,"[191, 44, 230, 97, 27, 172, 94, 38, 227, 234, 149, 151, 225, 38, 54, 33, 10, 31, 221, 159, 234, 11, 147, 104, 176, 55, 124, 209, 27, 247, 81, 5]",5f96dd9824dc39060be2c67f,5d6ebbf926b44400175f445a,5f96f6ac156c7e036d366de8,True,,,8.0,0.0,445.62395312590525,f,"[-0.33333333333333304, 0]","[[0.33333333333333304, -0.33333333333333304], [-0.33333333333333304, 0.16666666666666602], [-0.16666666666666602, -0.33333333333333304], [-0.16666666666666602, 0.16666666666666602], [0, 0.33333333333333304], [-0.16666666666666602, 0], [-0.33333333333333304, 0.33333333333333304]]",889.1060468740761,f,main,1.0,,,conjunction,
,html-keyboard-response,68,203408,0.0-4.0-1.1-1.24,aaaab,5d6ebbf926b44400175f445a,"[191, 44, 230, 97, 27, 172, 94, 38, 227, 234, 149, 151, 225, 38, 54, 33, 10, 31, 221, 159, 234, 11, 147, 104, 176, 55, 124, 209, 27, 247, 81, 5]",5f96dd9824dc39060be2c67f,5d6ebbf926b44400175f445a,5f96f6ac156c7e036d366de8,True,,,,,,,,,,,,,"<div style=""width:150px;height:56px;font-size:30px;text-align:center;"">correct!</div>",,,
,p5vs_yn,69,205452,0.0-4.0-1.1-0.25,aaaab,5d6ebbf926b44400175f445a,"[191, 44, 230, 97, 27, 172, 94, 38, 227, 234, 149, 151, 225, 38, 54, 33, 10, 31, 221, 159, 234, 11, 147, 104, 176, 55, 124, 209, 27, 247, 81, 5]",5f96dd9824dc39060be2c67f,5d6ebbf926b44400175f445a,5f96f6ac156c7e036d366de8,True,,,8.0,0.0,417.7188589006255,f,"[0.16666666666666602, -0.16666666666666602]","[[0.33333333333333304, 0.16666666666666602], [0.16666666666666602, 0.33333333333333304], [-0.33333333333333304, 0.33333333333333304], [0.16666666666666602, 0.16666666666666602], [-0.16666666666666602, 0], [0.16666666666666602, 0], [-0.33333333333333304, -0.16666666666666602]]",413.95614109933376,f,main,1.0,,,shape,
,html-keyboard-response,70,206453,0.0-4.0-1.1-1.25,aaaab,5d6ebbf926b44400175f445a,"[191, 44, 230, 97, 27, 172, 94, 38, 227, 234, 149, 151, 225, 38, 54, 33, 10, 31, 221, 159, 234, 11, 147, 104, 176, 55, 124, 209, 27, 247, 81, 5]",5f96dd9824dc39060be2c67f,5d6ebbf926b44400175f445a,5f96f6ac156c7e036d366de8,True,,,,,,,,,,,,,"<div style=""width:150px;height:56px;font-size:30px;text-align:center;"">correct!</div>",,,
,p5vs_yn,71,208748,0.0-4.0-1.1-0.26,aaaab,5d6ebbf926b44400175f445a,"[191, 44, 230, 97, 27, 172, 94, 38, 227, 234, 149, 151, 225, 38, 54, 33, 10, 31, 221, 159, 234, 11, 147, 104, 176, 55, 124, 209, 27, 247, 81, 5]",5f96dd9824dc39060be2c67f,5d6ebbf926b44400175f445a,5f96f6ac156c7e036d366de8,True,,,8.0,1.0,390.63532145068166,j,"[-0.33333333333333304, 0.33333333333333304]","[[-0.33333333333333304, 0], [0.16666666666666602, 0.16666666666666602], [-0.33333333333333304, -0.16666666666666602], [0, 0.16666666666666602], [0.16666666666666602, 0], [0.33333333333333304, -0.16666666666666602], [0.33333333333333304, -0.33333333333333304]]",696.9596785493195,j,main,1.0,,,shape,
,html-keyboard-response,72,209757,0.0-4.0-1.1-1.26,aaaab,5d6ebbf926b44400175f445a,"[191, 44, 230, 97, 27, 172, 94, 38, 227, 234, 149, 151, 225, 38, 54, 33, 10, 31, 221, 159, 234, 11, 147, 104, 176, 55, 124, 209, 27, 247, 81, 5]",5f96dd9824dc39060be2c67f,5d6ebbf926b44400175f445a,5f96f6ac156c7e036d366de8,True,,,,,,,,,,,,,"<div style=""width:150px;height:56px;font-size:30px;text-align:center;"">correct!</div>",,,
,p5vs_yn,73,212119,0.0-4.0-1.1-0.27,aaaab,5d6ebbf926b44400175f445a,"[191, 44, 230, 97, 27, 172, 94, 38, 227, 234, 149, 151, 225, 38, 54, 33, 10, 31, 221, 159, 234, 11, 147, 104, 176, 55, 124, 209, 27, 247, 81, 5]",5f96dd9824dc39060be2c67f,5d6ebbf926b44400175f445a,5f96f6ac156c7e036d366de8,True,,,4.0,0.0,428.6953761949844,f,"[0, 0.16666666666666602]","[[0.16666666666666602, 0.33333333333333304], [0, 0.33333333333333304], [-0.33333333333333304, -0.16666666666666602]]",710.134623805061,f,main,1.0,,,conjunction,
,html-keyboard-response,74,213133,0.0-4.0-1.1-1.27,aaaab,5d6ebbf926b44400175f445a,"[191, 44, 230, 97, 27, 172, 94, 38, 227, 234, 149, 151, 225, 38, 54, 33, 10, 31, 221, 159, 234, 11, 147, 104, 176, 55, 124, 209, 27, 247, 81, 5]",5f96dd9824dc39060be2c67f,5d6ebbf926b44400175f445a,5f96f6ac156c7e036d366de8,True,,,,,,,,,,,,,"<div style=""width:150px;height:56px;font-size:30px;text-align:center;"">correct!</div>",,,
,p5vs_yn,75,215639,0.0-4.0-1.1-0.28,aaaab,5d6ebbf926b44400175f445a,"[191, 44, 230, 97, 27, 172, 94, 38, 227, 234, 149, 151, 225, 38, 54, 33, 10, 31, 221, 159, 234, 11, 147, 104, 176, 55, 124, 209, 27, 247, 81, 5]",5f96dd9824dc39060be2c67f,5d6ebbf926b44400175f445a,5f96f6ac156c7e036d366de8,True,,,4.0,1.0,384.4303940483369,j,"[-0.16666666666666602, -0.33333333333333304]","[[-0.33333333333333304, 0], [0.33333333333333304, -0.33333333333333304], [-0.33333333333333304, 0.16666666666666602]]",915.1346059516072,j,main,1.0,,,shape,
,html-keyboard-response,76,216713,0.0-4.0-1.1-1.28,aaaab,5d6ebbf926b44400175f445a,"[191, 44, 230, 97, 27, 172, 94, 38, 227, 234, 149, 151, 225, 38, 54, 33, 10, 31, 221, 159, 234, 11, 147, 104, 176, 55, 124, 209, 27, 247, 81, 5]",5f96dd9824dc39060be2c67f,5d6ebbf926b44400175f445a,5f96f6ac156c7e036d366de8,True,,,,,,,,,,,,,"<div style=""width:150px;height:56px;font-size:30px;text-align:center;"">correct!</div>",,,
,p5vs_yn,77,219402,0.0-4.0-1.1-0.29,aaaab,5d6ebbf926b44400175f445a,"[191, 44, 230, 97, 27, 172, 94, 38, 227, 234, 149, 151, 225, 38, 54, 33, 10, 31, 221, 159, 234, 11, 147, 104, 176, 55, 124, 209, 27, 247, 81, 5]",5f96dd9824dc39060be2c67f,5d6ebbf926b44400175f445a,5f96f6ac156c7e036d366de8,True,,,8.0,1.0,900.6964347591274,f,"[0, 0.16666666666666602]","[[0, 0], [0.16666666666666602, -0.16666666666666602], [0.33333333333333304, 0.16666666666666602], [-0.16666666666666602, -0.16666666666666602], [0, -0.16666666666666602], [0.33333333333333304, 0.33333333333333304], [-0.33333333333333304, -0.16666666666666602]]",573.7435652408749,j,main,0.0,,,conjunction,
,html-keyboard-response,78,220904,0.0-4.0-1.1-1.29,aaaab,5d6ebbf926b44400175f445a,"[191, 44, 230, 97, 27, 172, 94, 38, 227, 234, 149, 151, 225, 38, 54, 33, 10, 31, 221, 159, 234, 11, 147, 104, 176, 55, 124, 209, 27, 247, 81, 5]",5f96dd9824dc39060be2c67f,5d6ebbf926b44400175f445a,5f96f6ac156c7e036d366de8,True,,,,,,,,,,,,,"<div style=""width:150px;height:56px;border:0px;font-size:30px;text-align:center"">wrong.</div>",,,
,p5vs_yn,79,223052,0.0-4.0-1.1-0.30,aaaab,5d6ebbf926b44400175f445a,"[191, 44, 230, 97, 27, 172, 94, 38, 227, 234, 149, 151, 225, 38, 54, 33, 10, 31, 221, 159, 234, 11, 147, 104, 176, 55, 124, 209, 27, 247, 81, 5]",5f96dd9824dc39060be2c67f,5d6ebbf926b44400175f445a,5f96f6ac156c7e036d366de8,True,,,4.0,1.0,445.09273321254295,j,"[0, 0.33333333333333304]","[[0.33333333333333304, 0], [0, 0], [0.33333333333333304, -0.16666666666666602]]",489.2322667874396,j,main,1.0,,,conjunction,
,html-keyboard-response,80,224090,0.0-4.0-1.1-1.30,aaaab,5d6ebbf926b44400175f445a,"[191, 44, 230, 97, 27, 172, 94, 38, 227, 234, 149, 151, 225, 38, 54, 33, 10, 31, 221, 159, 234, 11, 147, 104, 176, 55, 124, 209, 27, 247, 81, 5]",5f96dd9824dc39060be2c67f,5d6ebbf926b44400175f445a,5f96f6ac156c7e036d366de8,True,,,,,,,,,,,,,"<div style=""width:150px;height:56px;font-size:30px;text-align:center;"">correct!</div>",,,
,p5vs_yn,81,226218,0.0-4.0-1.1-0.31,aaaab,5d6ebbf926b44400175f445a,"[191, 44, 230, 97, 27, 172, 94, 38, 227, 234, 149, 151, 225, 38, 54, 33, 10, 31, 221, 159, 234, 11, 147, 104, 176, 55, 124, 209, 27, 247, 81, 5]",5f96dd9824dc39060be2c67f,5d6ebbf926b44400175f445a,5f96f6ac156c7e036d366de8,True,,,4.0,0.0,502.6392387342639,f,"[-0.16666666666666602, 0.33333333333333304]","[[0.33333333333333304, 0], [0.16666666666666602, -0.16666666666666602], [-0.16666666666666602, 0.16666666666666602]]",418.2557612657547,f,main,1.0,,,shape,
,html-keyboard-response,82,227229,0.0-4.0-1.1-1.31,aaaab,5d6ebbf926b44400175f445a,"[191, 44, 230, 97, 27, 172, 94, 38, 227, 234, 149, 151, 225, 38, 54, 33, 10, 31, 221, 159, 234, 11, 147, 104, 176, 55, 124, 209, 27, 247, 81, 5]",5f96dd9824dc39060be2c67f,5d6ebbf926b44400175f445a,5f96f6ac156c7e036d366de8,True,,,,,,,,,,,,,"<div style=""width:150px;height:56px;font-size:30px;text-align:center;"">correct!</div>",,,
,instructions,83,229588,0.0-4.0-2.1,aaaab,5d6ebbf926b44400175f445a,"[191, 44, 230, 97, 27, 172, 94, 38, 227, 234, 149, 151, 225, 38, 54, 33, 10, 31, 221, 159, 234, 11, 147, 104, 176, 55, 124, 209, 27, 247, 81, 5]",5f96dd9824dc39060be2c67f,5d6ebbf926b44400175f445a,5f96f6ac156c7e036d366de8,True,"[{""page_index"":0,""viewing_time"":2356.084999999992}]",2357.11500000002,,,,,,,,,,,,,,
,call-function,84,229589,0.0-4.0-3.1,aaaab,5d6ebbf926b44400175f445a,"[191, 44, 230, 97, 27, 172, 94, 38, 227, 234, 149, 151, 225, 38, 54, 33, 10, 31, 221, 159, 234, 11, 147, 104, 176, 55, 124, 209, 27, 247, 81, 5]",5f96dd9824dc39060be2c67f,5d6ebbf926b44400175f445a,5f96f6ac156c7e036d366de8,True,,,,,,,,,,,,,,,,
,instructions,85,239677,0.0-4.0-0.2,aaaab,5d6ebbf926b44400175f445a,"[191, 44, 230, 97, 27, 172, 94, 38, 227, 234, 149, 151, 225, 38, 54, 33, 10, 31, 221, 159, 234, 11, 147, 104, 176, 55, 124, 209, 27, 247, 81, 5]",5f96dd9824dc39060be2c67f,5d6ebbf926b44400175f445a,5f96f6ac156c7e036d366de8,True,"[{""page_index"":0,""viewing_time"":10086.780000000086}]",10087.400000000023,,,,,,,,,,,,,,
,p5vs_yn,86,242268,0.0-4.0-1.2-0.32,aaaab,5d6ebbf926b44400175f445a,"[191, 44, 230, 97, 27, 172, 94, 38, 227, 234, 149, 151, 225, 38, 54, 33, 10, 31, 221, 159, 234, 11, 147, 104, 176, 55, 124, 209, 27, 247, 81, 5]",5f96dd9824dc39060be2c67f,5d6ebbf926b44400175f445a,5f96f6ac156c7e036d366de8,True,,,8.0,1.0,506.06148389240843,j,"[-0.33333333333333304, 0.33333333333333304]","[[-0.16666666666666602, -0.33333333333333304], [0, 0], [0, 0.16666666666666602], [0, -0.16666666666666602], [0.16666666666666602, 0.33333333333333304], [-0.33333333333333304, 0], [0.16666666666666602, -0.33333333333333304]]",873.3085161074996,j,main,1.0,,,conjunction,
,html-keyboard-response,87,243271,0.0-4.0-1.2-1.32,aaaab,5d6ebbf926b44400175f445a,"[191, 44, 230, 97, 27, 172, 94, 38, 227, 234, 149, 151, 225, 38, 54, 33, 10, 31, 221, 159, 234, 11, 147, 104, 176, 55, 124, 209, 27, 247, 81, 5]",5f96dd9824dc39060be2c67f,5d6ebbf926b44400175f445a,5f96f6ac156c7e036d366de8,True,,,,,,,,,,,,,"<div style=""width:150px;height:56px;font-size:30px;text-align:center;"">correct!</div>",,,
,p5vs_yn,88,245730,0.0-4.0-1.2-0.33,aaaab,5d6ebbf926b44400175f445a,"[191, 44, 230, 97, 27, 172, 94, 38, 227, 234, 149, 151, 225, 38, 54, 33, 10, 31, 221, 159, 234, 11, 147, 104, 176, 55, 124, 209, 27, 247, 81, 5]",5f96dd9824dc39060be2c67f,5d6ebbf926b44400175f445a,5f96f6ac156c7e036d366de8,True,,,4.0,1.0,670.4338681097724,j,"[0.33333333333333304, 0.16666666666666602]","[[0.33333333333333304, 0], [-0.33333333333333304, 0], [0, 0]]",583.7961318902671,j,main,1.0,,,conjunction,
,html-keyboard-response,89,246840,0.0-4.0-1.2-1.33,aaaab,5d6ebbf926b44400175f445a,"[191, 44, 230, 97, 27, 172, 94, 38, 227, 234, 149, 151, 225, 38, 54, 33, 10, 31, 221, 159, 234, 11, 147, 104, 176, 55, 124, 209, 27, 247, 81, 5]",5f96dd9824dc39060be2c67f,5d6ebbf926b44400175f445a,5f96f6ac156c7e036d366de8,True,,,,,,,,,,,,,"<div style=""width:150px;height:56px;font-size:30px;text-align:center;"">correct!</div>",,,
,p5vs_yn,90,249885,0.0-4.0-1.2-0.34,aaaab,5d6ebbf926b44400175f445a,"[191, 44, 230, 97, 27, 172, 94, 38, 227, 234, 149, 151, 225, 38, 54, 33, 10, 31, 221, 159, 234, 11, 147, 104, 176, 55, 124, 209, 27, 247, 81, 5]",5f96dd9824dc39060be2c67f,5d6ebbf926b44400175f445a,5f96f6ac156c7e036d366de8,True,,,8.0,0.0,1165.6677869533014,f,"[0, 0.33333333333333304]","[[-0.16666666666666602, 0.16666666666666602], [0.33333333333333304, 0.33333333333333304], [-0.16666666666666602, 0.33333333333333304], [0.16666666666666602, 0.33333333333333304], [0, -0.16666666666666602], [0.33333333333333304, 0], [-0.33333333333333304, 0.33333333333333304]]",668.7572130467743,f,main,1.0,,,conjunction,
,html-keyboard-response,91,250889,0.0-4.0-1.2-1.34,aaaab,5d6ebbf926b44400175f445a,"[191, 44, 230, 97, 27, 172, 94, 38, 227, 234, 149, 151, 225, 38, 54, 33, 10, 31, 221, 159, 234, 11, 147, 104, 176, 55, 124, 209, 27, 247, 81, 5]",5f96dd9824dc39060be2c67f,5d6ebbf926b44400175f445a,5f96f6ac156c7e036d366de8,True,,,,,,,,,,,,,"<div style=""width:150px;height:56px;font-size:30px;text-align:center;"">correct!</div>",,,
,p5vs_yn,92,253218,0.0-4.0-1.2-0.35,aaaab,5d6ebbf926b44400175f445a,"[191, 44, 230, 97, 27, 172, 94, 38, 227, 234, 149, 151, 225, 38, 54, 33, 10, 31, 221, 159, 234, 11, 147, 104, 176, 55, 124, 209, 27, 247, 81, 5]",5f96dd9824dc39060be2c67f,5d6ebbf926b44400175f445a,5f96f6ac156c7e036d366de8,True,,,4.0,1.0,365.71672638098244,j,"[0, -0.33333333333333304]","[[0.33333333333333304, -0.33333333333333304], [-0.16666666666666602, 0.33333333333333304], [-0.16666666666666602, -0.16666666666666602]]",753.3082736190408,j,main,1.0,,,shape,
,html-keyboard-response,93,254222,0.0-4.0-1.2-1.35,aaaab,5d6ebbf926b44400175f445a,"[191, 44, 230, 97, 27, 172, 94, 38, 227, 234, 149, 151, 225, 38, 54, 33, 10, 31, 221, 159, 234, 11, 147, 104, 176, 55, 124, 209, 27, 247, 81, 5]",5f96dd9824dc39060be2c67f,5d6ebbf926b44400175f445a,5f96f6ac156c7e036d366de8,True,,,,,,,,,,,,,"<div style=""width:150px;height:56px;font-size:30px;text-align:center;"">correct!</div>",,,
,p5vs_yn,94,256701,0.0-4.0-1.2-0.36,aaaab,5d6ebbf926b44400175f445a,"[191, 44, 230, 97, 27, 172, 94, 38, 227, 234, 149, 151, 225, 38, 54, 33, 10, 31, 221, 159, 234, 11, 147, 104, 176, 55, 124, 209, 27, 247, 81, 5]",5f96dd9824dc39060be2c67f,5d6ebbf926b44400175f445a,5f96f6ac156c7e036d366de8,True,,,4.0,0.0,520.1628252301889,f,"[0.16666666666666602, 0.16666666666666602]","[[-0.33333333333333304, -0.16666666666666602], [0.33333333333333304, 0], [0.16666666666666602, 0]]",752.282174769789,f,main,1.0,,,conjunction,
,html-keyboard-response,95,257703,0.0-4.0-1.2-1.36,aaaab,5d6ebbf926b44400175f445a,"[191, 44, 230, 97, 27, 172, 94, 38, 227, 234, 149, 151, 225, 38, 54, 33, 10, 31, 221, 159, 234, 11, 147, 104, 176, 55, 124, 209, 27, 247, 81, 5]",5f96dd9824dc39060be2c67f,5d6ebbf926b44400175f445a,5f96f6ac156c7e036d366de8,True,,,,,,,,,,,,,"<div style=""width:150px;height:56px;font-size:30px;text-align:center;"">correct!</div>",,,
,p5vs_yn,96,259859,0.0-4.0-1.2-0.37,aaaab,5d6ebbf926b44400175f445a,"[191, 44, 230, 97, 27, 172, 94, 38, 227, 234, 149, 151, 225, 38, 54, 33, 10, 31, 221, 159, 234, 11, 147, 104, 176, 55, 124, 209, 27, 247, 81, 5]",5f96dd9824dc39060be2c67f,5d6ebbf926b44400175f445a,5f96f6ac156c7e036d366de8,True,,,8.0,1.0,516.6941969080654,j,"[-0.33333333333333304, 0.16666666666666602]","[[-0.33333333333333304, 0.33333333333333304], [0.16666666666666602, 0], [0.33333333333333304, -0.16666666666666602], [0.33333333333333304, -0.33333333333333304], [-0.16666666666666602, -0.33333333333333304], [-0.33333333333333304, -0.16666666666666602], [0.33333333333333304, 0.16666666666666602]]",432.06580309197307,j,main,1.0,,,shape,
,html-keyboard-response,97,260860,0.0-4.0-1.2-1.37,aaaab,5d6ebbf926b44400175f445a,"[191, 44, 230, 97, 27, 172, 94, 38, 227, 234, 149, 151, 225, 38, 54, 33, 10, 31, 221, 159, 234, 11, 147, 104, 176, 55, 124, 209, 27, 247, 81, 5]",5f96dd9824dc39060be2c67f,5d6ebbf926b44400175f445a,5f96f6ac156c7e036d366de8,True,,,,,,,,,,,,,"<div style=""width:150px;height:56px;font-size:30px;text-align:center;"">correct!</div>",,,
,p5vs_yn,98,263019,0.0-4.0-1.2-0.38,aaaab,5d6ebbf926b44400175f445a,"[191, 44, 230, 97, 27, 172, 94, 38, 227, 234, 149, 151, 225, 38, 54, 33, 10, 31, 221, 159, 234, 11, 147, 104, 176, 55, 124, 209, 27, 247, 81, 5]",5f96dd9824dc39060be2c67f,5d6ebbf926b44400175f445a,5f96f6ac156c7e036d366de8,True,,,8.0,0.0,467.94226967555005,f,"[-0.16666666666666602, 0.33333333333333304]","[[-0.33333333333333304, -0.33333333333333304], [0, -0.16666666666666602], [0.33333333333333304, 0.16666666666666602], [-0.33333333333333304, 0.33333333333333304], [0, -0.33333333333333304], [0.16666666666666602, 0.33333333333333304], [0.16666666666666602, 0]]",483.60273032449186,f,main,1.0,,,shape,
,html-keyboard-response,99,264101,0.0-4.0-1.2-1.38,aaaab,5d6ebbf926b44400175f445a,"[191, 44, 230, 97, 27, 172, 94, 38, 227, 234, 149, 151, 225, 38, 54, 33, 10, 31, 221, 159, 234, 11, 147, 104, 176, 55, 124, 209, 27, 247, 81, 5]",5f96dd9824dc39060be2c67f,5d6ebbf926b44400175f445a,5f96f6ac156c7e036d366de8,True,,,,,,,,,,,,,"<div style=""width:150px;height:56px;font-size:30px;text-align:center;"">correct!</div>",,,
,p5vs_yn,100,266398,0.0-4.0-1.2-0.39,aaaab,5d6ebbf926b44400175f445a,"[191, 44, 230, 97, 27, 172, 94, 38, 227, 234, 149, 151, 225, 38, 54, 33, 10, 31, 221, 159, 234, 11, 147, 104, 176, 55, 124, 209, 27, 247, 81, 5]",5f96dd9824dc39060be2c67f,5d6ebbf926b44400175f445a,5f96f6ac156c7e036d366de8,True,,,4.0,0.0,628.1454852140159,f,"[0.16666666666666602, -0.33333333333333304]","[[0.33333333333333304, 0.33333333333333304], [-0.16666666666666602, 0.33333333333333304], [-0.33333333333333304, -0.33333333333333304]]",461.564514786005,f,main,1.0,,,shape,
,html-keyboard-response,101,267407,0.0-4.0-1.2-1.39,aaaab,5d6ebbf926b44400175f445a,"[191, 44, 230, 97, 27, 172, 94, 38, 227, 234, 149, 151, 225, 38, 54, 33, 10, 31, 221, 159, 234, 11, 147, 104, 176, 55, 124, 209, 27, 247, 81, 5]",5f96dd9824dc39060be2c67f,5d6ebbf926b44400175f445a,5f96f6ac156c7e036d366de8,True,,,,,,,,,,,,,"<div style=""width:150px;height:56px;font-size:30px;text-align:center;"">correct!</div>",,,
,p5vs_yn,102,269784,0.0-4.0-1.2-0.40,aaaab,5d6ebbf926b44400175f445a,"[191, 44, 230, 97, 27, 172, 94, 38, 227, 234, 149, 151, 225, 38, 54, 33, 10, 31, 221, 159, 234, 11, 147, 104, 176, 55, 124, 209, 27, 247, 81, 5]",5f96dd9824dc39060be2c67f,5d6ebbf926b44400175f445a,5f96f6ac156c7e036d366de8,True,,,8.0,1.0,443.8336674270686,j,"[0.16666666666666602, -0.33333333333333304]","[[0.33333333333333304, -0.16666666666666602], [0.33333333333333304, 0.33333333333333304], [0.16666666666666602, 0.16666666666666602], [0.33333333333333304, 0.16666666666666602], [-0.33333333333333304, 0.16666666666666602], [0, 0], [-0.16666666666666602, 0]]",721.3613325729966,j,main,1.0,,,conjunction,
,html-keyboard-response,103,270786,0.0-4.0-1.2-1.40,aaaab,5d6ebbf926b44400175f445a,"[191, 44, 230, 97, 27, 172, 94, 38, 227, 234, 149, 151, 225, 38, 54, 33, 10, 31, 221, 159, 234, 11, 147, 104, 176, 55, 124, 209, 27, 247, 81, 5]",5f96dd9824dc39060be2c67f,5d6ebbf926b44400175f445a,5f96f6ac156c7e036d366de8,True,,,,,,,,,,,,,"<div style=""width:150px;height:56px;font-size:30px;text-align:center;"">correct!</div>",,,
,p5vs_yn,104,272802,0.0-4.0-1.2-0.41,aaaab,5d6ebbf926b44400175f445a,"[191, 44, 230, 97, 27, 172, 94, 38, 227, 234, 149, 151, 225, 38, 54, 33, 10, 31, 221, 159, 234, 11, 147, 104, 176, 55, 124, 209, 27, 247, 81, 5]",5f96dd9824dc39060be2c67f,5d6ebbf926b44400175f445a,5f96f6ac156c7e036d366de8,True,,,4.0,1.0,394.8131064635818,j,"[-0.33333333333333304, 0.16666666666666602]","[[-0.16666666666666602, 0.16666666666666602], [0.16666666666666602, 0.33333333333333304], [-0.16666666666666602, -0.16666666666666602]]",410.736893536523,j,main,1.0,,,conjunction,
,html-keyboard-response,105,273823,0.0-4.0-1.2-1.41,aaaab,5d6ebbf926b44400175f445a,"[191, 44, 230, 97, 27, 172, 94, 38, 227, 234, 149, 151, 225, 38, 54, 33, 10, 31, 221, 159, 234, 11, 147, 104, 176, 55, 124, 209, 27, 247, 81, 5]",5f96dd9824dc39060be2c67f,5d6ebbf926b44400175f445a,5f96f6ac156c7e036d366de8,True,,,,,,,,,,,,,"<div style=""width:150px;height:56px;font-size:30px;text-align:center;"">correct!</div>",,,
,p5vs_yn,106,276168,0.0-4.0-1.2-0.42,aaaab,5d6ebbf926b44400175f445a,"[191, 44, 230, 97, 27, 172, 94, 38, 227, 234, 149, 151, 225, 38, 54, 33, 10, 31, 221, 159, 234, 11, 147, 104, 176, 55, 124, 209, 27, 247, 81, 5]",5f96dd9824dc39060be2c67f,5d6ebbf926b44400175f445a,5f96f6ac156c7e036d366de8,True,,,8.0,0.0,511.94978262053337,f,"[0.16666666666666602, -0.33333333333333304]","[[0.16666666666666602, -0.16666666666666602], [0, 0.16666666666666602], [0.33333333333333304, -0.33333333333333304], [-0.33333333333333304, 0], [0.16666666666666602, 0.33333333333333304], [-0.16666666666666602, -0.33333333333333304], [0.33333333333333304, -0.16666666666666602]]",618.6902173794806,f,main,1.0,,,conjunction,
,html-keyboard-response,107,277171,0.0-4.0-1.2-1.42,aaaab,5d6ebbf926b44400175f445a,"[191, 44, 230, 97, 27, 172, 94, 38, 227, 234, 149, 151, 225, 38, 54, 33, 10, 31, 221, 159, 234, 11, 147, 104, 176, 55, 124, 209, 27, 247, 81, 5]",5f96dd9824dc39060be2c67f,5d6ebbf926b44400175f445a,5f96f6ac156c7e036d366de8,True,,,,,,,,,,,,,"<div style=""width:150px;height:56px;font-size:30px;text-align:center;"">correct!</div>",,,
,p5vs_yn,108,279252,0.0-4.0-1.2-0.43,aaaab,5d6ebbf926b44400175f445a,"[191, 44, 230, 97, 27, 172, 94, 38, 227, 234, 149, 151, 225, 38, 54, 33, 10, 31, 221, 159, 234, 11, 147, 104, 176, 55, 124, 209, 27, 247, 81, 5]",5f96dd9824dc39060be2c67f,5d6ebbf926b44400175f445a,5f96f6ac156c7e036d366de8,True,,,8.0,0.0,476.50222529424354,f,"[0, -0.16666666666666602]","[[-0.33333333333333304, -0.33333333333333304], [0.33333333333333304, -0.16666666666666602], [0.16666666666666602, -0.33333333333333304], [-0.33333333333333304, -0.16666666666666602], [0.16666666666666602, -0.16666666666666602], [-0.16666666666666602, -0.16666666666666602], [-0.33333333333333304, 0.33333333333333304]]",390.72777470573783,f,main,1.0,,,shape,
,html-keyboard-response,109,280293,0.0-4.0-1.2-1.43,aaaab,5d6ebbf926b44400175f445a,"[191, 44, 230, 97, 27, 172, 94, 38, 227, 234, 149, 151, 225, 38, 54, 33, 10, 31, 221, 159, 234, 11, 147, 104, 176, 55, 124, 209, 27, 247, 81, 5]",5f96dd9824dc39060be2c67f,5d6ebbf926b44400175f445a,5f96f6ac156c7e036d366de8,True,,,,,,,,,,,,,"<div style=""width:150px;height:56px;font-size:30px;text-align:center;"">correct!</div>",,,
,p5vs_yn,110,282402,0.0-4.0-1.2-0.44,aaaab,5d6ebbf926b44400175f445a,"[191, 44, 230, 97, 27, 172, 94, 38, 227, 234, 149, 151, 225, 38, 54, 33, 10, 31, 221, 159, 234, 11, 147, 104, 176, 55, 124, 209, 27, 247, 81, 5]",5f96dd9824dc39060be2c67f,5d6ebbf926b44400175f445a,5f96f6ac156c7e036d366de8,True,,,4.0,0.0,474.0212420022581,f,"[0.33333333333333304, -0.16666666666666602]","[[0, 0.16666666666666602], [0.33333333333333304, 0.16666666666666602], [0.16666666666666602, -0.33333333333333304]]",423.23875799775124,f,main,1.0,,,shape,
,html-keyboard-response,111,283405,0.0-4.0-1.2-1.44,aaaab,5d6ebbf926b44400175f445a,"[191, 44, 230, 97, 27, 172, 94, 38, 227, 234, 149, 151, 225, 38, 54, 33, 10, 31, 221, 159, 234, 11, 147, 104, 176, 55, 124, 209, 27, 247, 81, 5]",5f96dd9824dc39060be2c67f,5d6ebbf926b44400175f445a,5f96f6ac156c7e036d366de8,True,,,,,,,,,,,,,"<div style=""width:150px;height:56px;font-size:30px;text-align:center;"">correct!</div>",,,
,p5vs_yn,112,285784,0.0-4.0-1.2-0.45,aaaab,5d6ebbf926b44400175f445a,"[191, 44, 230, 97, 27, 172, 94, 38, 227, 234, 149, 151, 225, 38, 54, 33, 10, 31, 221, 159, 234, 11, 147, 104, 176, 55, 124, 209, 27, 247, 81, 5]",5f96dd9824dc39060be2c67f,5d6ebbf926b44400175f445a,5f96f6ac156c7e036d366de8,True,,,8.0,1.0,371.7690423130989,j,"[0.33333333333333304, -0.16666666666666602]","[[0.16666666666666602, -0.16666666666666602], [-0.16666666666666602, -0.33333333333333304], [-0.33333333333333304, -0.33333333333333304], [0, -0.16666666666666602], [-0.16666666666666602, 0.33333333333333304], [0, -0.33333333333333304], [-0.33333333333333304, 0.33333333333333304]]",794.6509576868266,j,main,1.0,,,shape,
,html-keyboard-response,113,286786,0.0-4.0-1.2-1.45,aaaab,5d6ebbf926b44400175f445a,"[191, 44, 230, 97, 27, 172, 94, 38, 227, 234, 149, 151, 225, 38, 54, 33, 10, 31, 221, 159, 234, 11, 147, 104, 176, 55, 124, 209, 27, 247, 81, 5]",5f96dd9824dc39060be2c67f,5d6ebbf926b44400175f445a,5f96f6ac156c7e036d366de8,True,,,,,,,,,,,,,"<div style=""width:150px;height:56px;font-size:30px;text-align:center;"">correct!</div>",,,
,p5vs_yn,114,288534,0.0-4.0-1.2-0.46,aaaab,5d6ebbf926b44400175f445a,"[191, 44, 230, 97, 27, 172, 94, 38, 227, 234, 149, 151, 225, 38, 54, 33, 10, 31, 221, 159, 234, 11, 147, 104, 176, 55, 124, 209, 27, 247, 81, 5]",5f96dd9824dc39060be2c67f,5d6ebbf926b44400175f445a,5f96f6ac156c7e036d366de8,True,,,4.0,1.0,358.53633104014443,j,"[0.16666666666666602, -0.33333333333333304]","[[0.16666666666666602, 0.33333333333333304], [0, 0.16666666666666602], [-0.16666666666666602, 0]]",173.10366895981133,j,main,1.0,,,shape,
,html-keyboard-response,115,289537,0.0-4.0-1.2-1.46,aaaab,5d6ebbf926b44400175f445a,"[191, 44, 230, 97, 27, 172, 94, 38, 227, 234, 149, 151, 225, 38, 54, 33, 10, 31, 221, 159, 234, 11, 147, 104, 176, 55, 124, 209, 27, 247, 81, 5]",5f96dd9824dc39060be2c67f,5d6ebbf926b44400175f445a,5f96f6ac156c7e036d366de8,True,,,,,,,,,,,,,"<div style=""width:150px;height:56px;font-size:30px;text-align:center;"">correct!</div>",,,
,p5vs_yn,116,291834,0.0-4.0-1.2-0.47,aaaab,5d6ebbf926b44400175f445a,"[191, 44, 230, 97, 27, 172, 94, 38, 227, 234, 149, 151, 225, 38, 54, 33, 10, 31, 221, 159, 234, 11, 147, 104, 176, 55, 124, 209, 27, 247, 81, 5]",5f96dd9824dc39060be2c67f,5d6ebbf926b44400175f445a,5f96f6ac156c7e036d366de8,True,,,4.0,0.0,449.3525045912829,f,"[-0.16666666666666602, 0.33333333333333304]","[[-0.16666666666666602, 0.16666666666666602], [0.33333333333333304, 0.33333333333333304], [0.16666666666666602, 0.16666666666666602]]",638.7224954087287,f,main,1.0,,,conjunction,
,html-keyboard-response,117,292850,0.0-4.0-1.2-1.47,aaaab,5d6ebbf926b44400175f445a,"[191, 44, 230, 97, 27, 172, 94, 38, 227, 234, 149, 151, 225, 38, 54, 33, 10, 31, 221, 159, 234, 11, 147, 104, 176, 55, 124, 209, 27, 247, 81, 5]",5f96dd9824dc39060be2c67f,5d6ebbf926b44400175f445a,5f96f6ac156c7e036d366de8,True,,,,,,,,,,,,,"<div style=""width:150px;height:56px;font-size:30px;text-align:center;"">correct!</div>",,,
,instructions,118,377132,0.0-4.0-2.2,aaaab,5d6ebbf926b44400175f445a,"[191, 44, 230, 97, 27, 172, 94, 38, 227, 234, 149, 151, 225, 38, 54, 33, 10, 31, 221, 159, 234, 11, 147, 104, 176, 55, 124, 209, 27, 247, 81, 5]",5f96dd9824dc39060be2c67f,5d6ebbf926b44400175f445a,5f96f6ac156c7e036d366de8,True,"[{""page_index"":0,""viewing_time"":84273.28999999998}]",84274.63500000001,,,,,,,,,,,,,,
,call-function,119,377134,0.0-4.0-3.2,aaaab,5d6ebbf926b44400175f445a,"[191, 44, 230, 97, 27, 172, 94, 38, 227, 234, 149, 151, 225, 38, 54, 33, 10, 31, 221, 159, 234, 11, 147, 104, 176, 55, 124, 209, 27, 247, 81, 5]",5f96dd9824dc39060be2c67f,5d6ebbf926b44400175f445a,5f96f6ac156c7e036d366de8,True,,,,,,,,,,,,,,,,
,instructions,120,377860,0.0-4.0-0.3,aaaab,5d6ebbf926b44400175f445a,"[191, 44, 230, 97, 27, 172, 94, 38, 227, 234, 149, 151, 225, 38, 54, 33, 10, 31, 221, 159, 234, 11, 147, 104, 176, 55, 124, 209, 27, 247, 81, 5]",5f96dd9824dc39060be2c67f,5d6ebbf926b44400175f445a,5f96f6ac156c7e036d366de8,True,"[{""page_index"":0,""viewing_time"":724.875}]",725.445000000007,,,,,,,,,,,,,,
,p5vs_yn,121,380152,0.0-4.0-1.3-0.48,aaaab,5d6ebbf926b44400175f445a,"[191, 44, 230, 97, 27, 172, 94, 38, 227, 234, 149, 151, 225, 38, 54, 33, 10, 31, 221, 159, 234, 11, 147, 104, 176, 55, 124, 209, 27, 247, 81, 5]",5f96dd9824dc39060be2c67f,5d6ebbf926b44400175f445a,5f96f6ac156c7e036d366de8,True,,,4.0,0.0,429.8518811200629,f,"[-0.33333333333333304, -0.16666666666666602]","[[-0.16666666666666602, -0.33333333333333304], [0.16666666666666602, 0.16666666666666602], [-0.16666666666666602, 0.16666666666666602]]",648.5931188799441,f,main,1.0,,,shape,
,html-keyboard-response,122,381154,0.0-4.0-1.3-1.48,aaaab,5d6ebbf926b44400175f445a,"[191, 44, 230, 97, 27, 172, 94, 38, 227, 234, 149, 151, 225, 38, 54, 33, 10, 31, 221, 159, 234, 11, 147, 104, 176, 55, 124, 209, 27, 247, 81, 5]",5f96dd9824dc39060be2c67f,5d6ebbf926b44400175f445a,5f96f6ac156c7e036d366de8,True,,,,,,,,,,,,,"<div style=""width:150px;height:56px;font-size:30px;text-align:center;"">correct!</div>",,,
,p5vs_yn,123,383702,0.0-4.0-1.3-0.49,aaaab,5d6ebbf926b44400175f445a,"[191, 44, 230, 97, 27, 172, 94, 38, 227, 234, 149, 151, 225, 38, 54, 33, 10, 31, 221, 159, 234, 11, 147, 104, 176, 55, 124, 209, 27, 247, 81, 5]",5f96dd9824dc39060be2c67f,5d6ebbf926b44400175f445a,5f96f6ac156c7e036d366de8,True,,,8.0,0.0,473.29437368002255,f,"[0, 0.33333333333333304]","[[0.16666666666666602, -0.16666666666666602], [0.16666666666666602, 0.33333333333333304], [-0.16666666666666602, 0.16666666666666602], [-0.16666666666666602, 0], [0.33333333333333304, -0.16666666666666602], [-0.33333333333333304, 0.16666666666666602], [0, 0.16666666666666602]]",862.2506263200194,f,main,1.0,,,shape,
,html-keyboard-response,124,384706,0.0-4.0-1.3-1.49,aaaab,5d6ebbf926b44400175f445a,"[191, 44, 230, 97, 27, 172, 94, 38, 227, 234, 149, 151, 225, 38, 54, 33, 10, 31, 221, 159, 234, 11, 147, 104, 176, 55, 124, 209, 27, 247, 81, 5]",5f96dd9824dc39060be2c67f,5d6ebbf926b44400175f445a,5f96f6ac156c7e036d366de8,True,,,,,,,,,,,,,"<div style=""width:150px;height:56px;font-size:30px;text-align:center;"">correct!</div>",,,
,p5vs_yn,125,386317,0.0-4.0-1.3-0.50,aaaab,5d6ebbf926b44400175f445a,"[191, 44, 230, 97, 27, 172, 94, 38, 227, 234, 149, 151, 225, 38, 54, 33, 10, 31, 221, 159, 234, 11, 147, 104, 176, 55, 124, 209, 27, 247, 81, 5]",5f96dd9824dc39060be2c67f,5d6ebbf926b44400175f445a,5f96f6ac156c7e036d366de8,True,,,8.0,1.0,358.5160703758593,j,"[-0.33333333333333304, -0.33333333333333304]","[[0.33333333333333304, -0.16666666666666602], [-0.16666666666666602, -0.16666666666666602], [0.16666666666666602, 0.16666666666666602], [-0.33333333333333304, -0.16666666666666602], [0, 0.16666666666666602], [0, 0], [-0.16666666666666602, 0]]",37.968929624184966,j,main,1.0,,,shape,
,html-keyboard-response,126,387319,0.0-4.0-1.3-1.50,aaaab,5d6ebbf926b44400175f445a,"[191, 44, 230, 97, 27, 172, 94, 38, 227, 234, 149, 151, 225, 38, 54, 33, 10, 31, 221, 159, 234, 11, 147, 104, 176, 55, 124, 209, 27, 247, 81, 5]",5f96dd9824dc39060be2c67f,5d6ebbf926b44400175f445a,5f96f6ac156c7e036d366de8,True,,,,,,,,,,,,,"<div style=""width:150px;height:56px;font-size:30px;text-align:center;"">correct!</div>",,,
,p5vs_yn,127,389567,0.0-4.0-1.3-0.51,aaaab,5d6ebbf926b44400175f445a,"[191, 44, 230, 97, 27, 172, 94, 38, 227, 234, 149, 151, 225, 38, 54, 33, 10, 31, 221, 159, 234, 11, 147, 104, 176, 55, 124, 209, 27, 247, 81, 5]",5f96dd9824dc39060be2c67f,5d6ebbf926b44400175f445a,5f96f6ac156c7e036d366de8,True,,,4.0,0.0,499.9271528403624,f,"[-0.33333333333333304, -0.33333333333333304]","[[-0.16666666666666602, 0.16666666666666602], [-0.16666666666666602, 0.33333333333333304], [-0.16666666666666602, 0]]",535.0278471596539,f,main,1.0,,,conjunction,
,html-keyboard-response,128,390570,0.0-4.0-1.3-1.51,aaaab,5d6ebbf926b44400175f445a,"[191, 44, 230, 97, 27, 172, 94, 38, 227, 234, 149, 151, 225, 38, 54, 33, 10, 31, 221, 159, 234, 11, 147, 104, 176, 55, 124, 209, 27, 247, 81, 5]",5f96dd9824dc39060be2c67f,5d6ebbf926b44400175f445a,5f96f6ac156c7e036d366de8,True,,,,,,,,,,,,,"<div style=""width:150px;height:56px;font-size:30px;text-align:center;"">correct!</div>",,,
,p5vs_yn,129,394337,0.0-4.0-1.3-0.52,aaaab,5d6ebbf926b44400175f445a,"[191, 44, 230, 97, 27, 172, 94, 38, 227, 234, 149, 151, 225, 38, 54, 33, 10, 31, 221, 159, 234, 11, 147, 104, 176, 55, 124, 209, 27, 247, 81, 5]",5f96dd9824dc39060be2c67f,5d6ebbf926b44400175f445a,5f96f6ac156c7e036d366de8,True,,,4.0,1.0,2066.871808175987,j,"[0.33333333333333304, -0.16666666666666602]","[[-0.33333333333333304, -0.16666666666666602], [-0.16666666666666602, 0], [0.33333333333333304, -0.33333333333333304]]",484.46319182403386,j,main,1.0,,,shape,
,html-keyboard-response,130,395416,0.0-4.0-1.3-1.52,aaaab,5d6ebbf926b44400175f445a,"[191, 44, 230, 97, 27, 172, 94, 38, 227, 234, 149, 151, 225, 38, 54, 33, 10, 31, 221, 159, 234, 11, 147, 104, 176, 55, 124, 209, 27, 247, 81, 5]",5f96dd9824dc39060be2c67f,5d6ebbf926b44400175f445a,5f96f6ac156c7e036d366de8,True,,,,,,,,,,,,,"<div style=""width:150px;height:56px;font-size:30px;text-align:center;"">correct!</div>",,,
,p5vs_yn,131,398068,0.0-4.0-1.3-0.53,aaaab,5d6ebbf926b44400175f445a,"[191, 44, 230, 97, 27, 172, 94, 38, 227, 234, 149, 151, 225, 38, 54, 33, 10, 31, 221, 159, 234, 11, 147, 104, 176, 55, 124, 209, 27, 247, 81, 5]",5f96dd9824dc39060be2c67f,5d6ebbf926b44400175f445a,5f96f6ac156c7e036d366de8,True,,,8.0,1.0,567.0705057267915,j,"[-0.33333333333333304, -0.33333333333333304]","[[0.33333333333333304, -0.16666666666666602], [-0.33333333333333304, -0.16666666666666602], [-0.33333333333333304, 0], [0, 0.33333333333333304], [-0.16666666666666602, 0.16666666666666602], [0.16666666666666602, 0.16666666666666602], [0.16666666666666602, -0.16666666666666602]]",870.6244942732155,j,main,1.0,,,conjunction,
,html-keyboard-response,132,399070,0.0-4.0-1.3-1.53,aaaab,5d6ebbf926b44400175f445a,"[191, 44, 230, 97, 27, 172, 94, 38, 227, 234, 149, 151, 225, 38, 54, 33, 10, 31, 221, 159, 234, 11, 147, 104, 176, 55, 124, 209, 27, 247, 81, 5]",5f96dd9824dc39060be2c67f,5d6ebbf926b44400175f445a,5f96f6ac156c7e036d366de8,True,,,,,,,,,,,,,"<div style=""width:150px;height:56px;font-size:30px;text-align:center;"">correct!</div>",,,
,p5vs_yn,133,401437,0.0-4.0-1.3-0.54,aaaab,5d6ebbf926b44400175f445a,"[191, 44, 230, 97, 27, 172, 94, 38, 227, 234, 149, 151, 225, 38, 54, 33, 10, 31, 221, 159, 234, 11, 147, 104, 176, 55, 124, 209, 27, 247, 81, 5]",5f96dd9824dc39060be2c67f,5d6ebbf926b44400175f445a,5f96f6ac156c7e036d366de8,True,,,4.0,1.0,736.5074091431452,j,"[0.16666666666666602, 0.33333333333333304]","[[0, 0.33333333333333304], [0.33333333333333304, 0], [-0.33333333333333304, -0.16666666666666602]]",412.11259085685015,j,main,1.0,,,conjunction,
,html-keyboard-response,134,402439,0.0-4.0-1.3-1.54,aaaab,5d6ebbf926b44400175f445a,"[191, 44, 230, 97, 27, 172, 94, 38, 227, 234, 149, 151, 225, 38, 54, 33, 10, 31, 221, 159, 234, 11, 147, 104, 176, 55, 124, 209, 27, 247, 81, 5]",5f96dd9824dc39060be2c67f,5d6ebbf926b44400175f445a,5f96f6ac156c7e036d366de8,True,,,,,,,,,,,,,"<div style=""width:150px;height:56px;font-size:30px;text-align:center;"">correct!</div>",,,
,p5vs_yn,135,404468,0.0-4.0-1.3-0.55,aaaab,5d6ebbf926b44400175f445a,"[191, 44, 230, 97, 27, 172, 94, 38, 227, 234, 149, 151, 225, 38, 54, 33, 10, 31, 221, 159, 234, 11, 147, 104, 176, 55, 124, 209, 27, 247, 81, 5]",5f96dd9824dc39060be2c67f,5d6ebbf926b44400175f445a,5f96f6ac156c7e036d366de8,True,,,8.0,0.0,598.4843006152078,f,"[-0.16666666666666602, 0]","[[0, 0.33333333333333304], [-0.16666666666666602, 0.33333333333333304], [0, 0.16666666666666602], [0.33333333333333304, 0.16666666666666602], [-0.16666666666666602, 0.16666666666666602], [-0.33333333333333304, -0.33333333333333304], [0.16666666666666602, -0.33333333333333304]]",221.92569938488305,f,main,1.0,,,conjunction,
,html-keyboard-response,136,405472,0.0-4.0-1.3-1.55,aaaab,5d6ebbf926b44400175f445a,"[191, 44, 230, 97, 27, 172, 94, 38, 227, 234, 149, 151, 225, 38, 54, 33, 10, 31, 221, 159, 234, 11, 147, 104, 176, 55, 124, 209, 27, 247, 81, 5]",5f96dd9824dc39060be2c67f,5d6ebbf926b44400175f445a,5f96f6ac156c7e036d366de8,True,,,,,,,,,,,,,"<div style=""width:150px;height:56px;font-size:30px;text-align:center;"">correct!</div>",,,
,p5vs_yn,137,408183,0.0-4.0-1.3-0.56,aaaab,5d6ebbf926b44400175f445a,"[191, 44, 230, 97, 27, 172, 94, 38, 227, 234, 149, 151, 225, 38, 54, 33, 10, 31, 221, 159, 234, 11, 147, 104, 176, 55, 124, 209, 27, 247, 81, 5]",5f96dd9824dc39060be2c67f,5d6ebbf926b44400175f445a,5f96f6ac156c7e036d366de8,True,,,8.0,0.0,518.5791162681999,f,"[-0.33333333333333304, 0.16666666666666602]","[[0.16666666666666602, -0.16666666666666602], [-0.33333333333333304, -0.33333333333333304], [0.33333333333333304, 0.16666666666666602], [-0.16666666666666602, -0.33333333333333304], [0.16666666666666602, -0.33333333333333304], [0.16666666666666602, 0], [0.33333333333333304, -0.16666666666666602]]",979.715883731842,f,main,1.0,,,conjunction,
,html-keyboard-response,138,409186,0.0-4.0-1.3-1.56,aaaab,5d6ebbf926b44400175f445a,"[191, 44, 230, 97, 27, 172, 94, 38, 227, 234, 149, 151, 225, 38, 54, 33, 10, 31, 221, 159, 234, 11, 147, 104, 176, 55, 124, 209, 27, 247, 81, 5]",5f96dd9824dc39060be2c67f,5d6ebbf926b44400175f445a,5f96f6ac156c7e036d366de8,True,,,,,,,,,,,,,"<div style=""width:150px;height:56px;font-size:30px;text-align:center;"">correct!</div>",,,
,p5vs_yn,139,411433,0.0-4.0-1.3-0.57,aaaab,5d6ebbf926b44400175f445a,"[191, 44, 230, 97, 27, 172, 94, 38, 227, 234, 149, 151, 225, 38, 54, 33, 10, 31, 221, 159, 234, 11, 147, 104, 176, 55, 124, 209, 27, 247, 81, 5]",5f96dd9824dc39060be2c67f,5d6ebbf926b44400175f445a,5f96f6ac156c7e036d366de8,True,,,8.0,0.0,455.4954311181791,f,"[0, 0.33333333333333304]","[[0.33333333333333304, 0.16666666666666602], [0, -0.16666666666666602], [-0.16666666666666602, 0.33333333333333304], [-0.33333333333333304, 0.33333333333333304], [0, 0], [0.16666666666666602, -0.16666666666666602], [0.33333333333333304, -0.16666666666666602]]",586.0245688818395,f,main,1.0,,,shape,
,html-keyboard-response,140,412436,0.0-4.0-1.3-1.57,aaaab,5d6ebbf926b44400175f445a,"[191, 44, 230, 97, 27, 172, 94, 38, 227, 234, 149, 151, 225, 38, 54, 33, 10, 31, 221, 159, 234, 11, 147, 104, 176, 55, 124, 209, 27, 247, 81, 5]",5f96dd9824dc39060be2c67f,5d6ebbf926b44400175f445a,5f96f6ac156c7e036d366de8,True,,,,,,,,,,,,,"<div style=""width:150px;height:56px;font-size:30px;text-align:center;"">correct!</div>",,,
,p5vs_yn,141,414817,0.0-4.0-1.3-0.58,aaaab,5d6ebbf926b44400175f445a,"[191, 44, 230, 97, 27, 172, 94, 38, 227, 234, 149, 151, 225, 38, 54, 33, 10, 31, 221, 159, 234, 11, 147, 104, 176, 55, 124, 209, 27, 247, 81, 5]",5f96dd9824dc39060be2c67f,5d6ebbf926b44400175f445a,5f96f6ac156c7e036d366de8,True,,,4.0,0.0,570.9316161273164,f,"[-0.16666666666666602, -0.33333333333333304]","[[0, -0.16666666666666602], [-0.33333333333333304, -0.33333333333333304], [0.33333333333333304, -0.16666666666666602]]",593.5583838727325,f,main,1.0,,,shape,
,html-keyboard-response,142,415819,0.0-4.0-1.3-1.58,aaaab,5d6ebbf926b44400175f445a,"[191, 44, 230, 97, 27, 172, 94, 38, 227, 234, 149, 151, 225, 38, 54, 33, 10, 31, 221, 159, 234, 11, 147, 104, 176, 55, 124, 209, 27, 247, 81, 5]",5f96dd9824dc39060be2c67f,5d6ebbf926b44400175f445a,5f96f6ac156c7e036d366de8,True,,,,,,,,,,,,,"<div style=""width:150px;height:56px;font-size:30px;text-align:center;"">correct!</div>",,,
,p5vs_yn,143,418033,0.0-4.0-1.3-0.59,aaaab,5d6ebbf926b44400175f445a,"[191, 44, 230, 97, 27, 172, 94, 38, 227, 234, 149, 151, 225, 38, 54, 33, 10, 31, 221, 159, 234, 11, 147, 104, 176, 55, 124, 209, 27, 247, 81, 5]",5f96dd9824dc39060be2c67f,5d6ebbf926b44400175f445a,5f96f6ac156c7e036d366de8,True,,,8.0,1.0,405.91365689825034,j,"[0, -0.33333333333333304]","[[0.33333333333333304, 0], [0.16666666666666602, 0], [0.16666666666666602, 0.33333333333333304], [0.33333333333333304, -0.16666666666666602], [-0.16666666666666602, -0.16666666666666602], [0.33333333333333304, 0.33333333333333304], [-0.33333333333333304, -0.16666666666666602]]",594.6863431017846,j,main,1.0,,,conjunction,
,html-keyboard-response,144,419035,0.0-4.0-1.3-1.59,aaaab,5d6ebbf926b44400175f445a,"[191, 44, 230, 97, 27, 172, 94, 38, 227, 234, 149, 151, 225, 38, 54, 33, 10, 31, 221, 159, 234, 11, 147, 104, 176, 55, 124, 209, 27, 247, 81, 5]",5f96dd9824dc39060be2c67f,5d6ebbf926b44400175f445a,5f96f6ac156c7e036d366de8,True,,,,,,,,,,,,,"<div style=""width:150px;height:56px;font-size:30px;text-align:center;"">correct!</div>",,,
,p5vs_yn,145,421833,0.0-4.0-1.3-0.60,aaaab,5d6ebbf926b44400175f445a,"[191, 44, 230, 97, 27, 172, 94, 38, 227, 234, 149, 151, 225, 38, 54, 33, 10, 31, 221, 159, 234, 11, 147, 104, 176, 55, 124, 209, 27, 247, 81, 5]",5f96dd9824dc39060be2c67f,5d6ebbf926b44400175f445a,5f96f6ac156c7e036d366de8,True,,,8.0,1.0,727.8424341875943,j,"[-0.16666666666666602, 0.16666666666666602]","[[-0.16666666666666602, 0.33333333333333304], [0.33333333333333304, 0.16666666666666602], [-0.33333333333333304, 0.33333333333333304], [0.33333333333333304, -0.33333333333333304], [0.16666666666666602, 0.16666666666666602], [-0.33333333333333304, 0.16666666666666602], [0.16666666666666602, 0.33333333333333304]]",862.957565812394,j,main,1.0,,,shape,
,html-keyboard-response,146,422836,0.0-4.0-1.3-1.60,aaaab,5d6ebbf926b44400175f445a,"[191, 44, 230, 97, 27, 172, 94, 38, 227, 234, 149, 151, 225, 38, 54, 33, 10, 31, 221, 159, 234, 11, 147, 104, 176, 55, 124, 209, 27, 247, 81, 5]",5f96dd9824dc39060be2c67f,5d6ebbf926b44400175f445a,5f96f6ac156c7e036d366de8,True,,,,,,,,,,,,,"<div style=""width:150px;height:56px;font-size:30px;text-align:center;"">correct!</div>",,,
,p5vs_yn,147,425217,0.0-4.0-1.3-0.61,aaaab,5d6ebbf926b44400175f445a,"[191, 44, 230, 97, 27, 172, 94, 38, 227, 234, 149, 151, 225, 38, 54, 33, 10, 31, 221, 159, 234, 11, 147, 104, 176, 55, 124, 209, 27, 247, 81, 5]",5f96dd9824dc39060be2c67f,5d6ebbf926b44400175f445a,5f96f6ac156c7e036d366de8,True,,,4.0,0.0,524.4311859807349,f,"[0.33333333333333304, 0.16666666666666602]","[[0.16666666666666602, -0.33333333333333304], [0, 0], [-0.16666666666666602, 0]]",640.7538140192628,f,main,1.0,,,conjunction,
,html-keyboard-response,148,426220,0.0-4.0-1.3-1.61,aaaab,5d6ebbf926b44400175f445a,"[191, 44, 230, 97, 27, 172, 94, 38, 227, 234, 149, 151, 225, 38, 54, 33, 10, 31, 221, 159, 234, 11, 147, 104, 176, 55, 124, 209, 27, 247, 81, 5]",5f96dd9824dc39060be2c67f,5d6ebbf926b44400175f445a,5f96f6ac156c7e036d366de8,True,,,,,,,,,,,,,"<div style=""width:150px;height:56px;font-size:30px;text-align:center;"">correct!</div>",,,
,p5vs_yn,149,428686,0.0-4.0-1.3-0.62,aaaab,5d6ebbf926b44400175f445a,"[191, 44, 230, 97, 27, 172, 94, 38, 227, 234, 149, 151, 225, 38, 54, 33, 10, 31, 221, 159, 234, 11, 147, 104, 176, 55, 124, 209, 27, 247, 81, 5]",5f96dd9824dc39060be2c67f,5d6ebbf926b44400175f445a,5f96f6ac156c7e036d366de8,True,,,4.0,1.0,477.87544451549184,j,"[0.33333333333333304, 0]","[[-0.33333333333333304, -0.16666666666666602], [0.16666666666666602, 0.16666666666666602], [-0.33333333333333304, 0.33333333333333304]]",774.1195554845035,j,main,1.0,,,conjunction,
,html-keyboard-response,150,429688,0.0-4.0-1.3-1.62,aaaab,5d6ebbf926b44400175f445a,"[191, 44, 230, 97, 27, 172, 94, 38, 227, 234, 149, 151, 225, 38, 54, 33, 10, 31, 221, 159, 234, 11, 147, 104, 176, 55, 124, 209, 27, 247, 81, 5]",5f96dd9824dc39060be2c67f,5d6ebbf926b44400175f445a,5f96f6ac156c7e036d366de8,True,,,,,,,,,,,,,"<div style=""width:150px;height:56px;font-size:30px;text-align:center;"">correct!</div>",,,
,p5vs_yn,151,431867,0.0-4.0-1.3-0.63,aaaab,5d6ebbf926b44400175f445a,"[191, 44, 230, 97, 27, 172, 94, 38, 227, 234, 149, 151, 225, 38, 54, 33, 10, 31, 221, 159, 234, 11, 147, 104, 176, 55, 124, 209, 27, 247, 81, 5]",5f96dd9824dc39060be2c67f,5d6ebbf926b44400175f445a,5f96f6ac156c7e036d366de8,True,,,4.0,1.0,376.74357504874934,j,"[0, -0.33333333333333304]","[[0.16666666666666602, 0], [-0.16666666666666602, 0], [-0.16666666666666602, -0.33333333333333304]]",596.4764249511063,j,main,1.0,,,shape,
,html-keyboard-response,152,432869,0.0-4.0-1.3-1.63,aaaab,5d6ebbf926b44400175f445a,"[191, 44, 230, 97, 27, 172, 94, 38, 227, 234, 149, 151, 225, 38, 54, 33, 10, 31, 221, 159, 234, 11, 147, 104, 176, 55, 124, 209, 27, 247, 81, 5]",5f96dd9824dc39060be2c67f,5d6ebbf926b44400175f445a,5f96f6ac156c7e036d366de8,True,,,,,,,,,,,,,"<div style=""width:150px;height:56px;font-size:30px;text-align:center;"">correct!</div>",,,
,instructions,153,581324,0.0-4.0-2.3,aaaab,5d6ebbf926b44400175f445a,"[191, 44, 230, 97, 27, 172, 94, 38, 227, 234, 149, 151, 225, 38, 54, 33, 10, 31, 221, 159, 234, 11, 147, 104, 176, 55, 124, 209, 27, 247, 81, 5]",5f96dd9824dc39060be2c67f,5d6ebbf926b44400175f445a,5f96f6ac156c7e036d366de8,True,"[{""page_index"":0,""viewing_time"":148450.865}]",148451.735,,,,,,,,,,,,,,
,call-function,154,581325,0.0-4.0-3.3,aaaab,5d6ebbf926b44400175f445a,"[191, 44, 230, 97, 27, 172, 94, 38, 227, 234, 149, 151, 225, 38, 54, 33, 10, 31, 221, 159, 234, 11, 147, 104, 176, 55, 124, 209, 27, 247, 81, 5]",5f96dd9824dc39060be2c67f,5d6ebbf926b44400175f445a,5f96f6ac156c7e036d366de8,True,,,,,,,,,,,,,,,,
,instructions,155,582259,0.0-4.0-0.4,aaaab,5d6ebbf926b44400175f445a,"[191, 44, 230, 97, 27, 172, 94, 38, 227, 234, 149, 151, 225, 38, 54, 33, 10, 31, 221, 159, 234, 11, 147, 104, 176, 55, 124, 209, 27, 247, 81, 5]",5f96dd9824dc39060be2c67f,5d6ebbf926b44400175f445a,5f96f6ac156c7e036d366de8,True,"[{""page_index"":0,""viewing_time"":932.7749999999069}]",933.7049999999581,,,,,,,,,,,,,,
,p5vs_yn,156,584765,0.0-4.0-1.4-0.64,aaaab,5d6ebbf926b44400175f445a,"[191, 44, 230, 97, 27, 172, 94, 38, 227, 234, 149, 151, 225, 38, 54, 33, 10, 31, 221, 159, 234, 11, 147, 104, 176, 55, 124, 209, 27, 247, 81, 5]",5f96dd9824dc39060be2c67f,5d6ebbf926b44400175f445a,5f96f6ac156c7e036d366de8,True,,,4.0,0.0,605.2225785903865,f,"[0.33333333333333304, 0.33333333333333304]","[[-0.16666666666666602, 0], [0.33333333333333304, 0.16666666666666602], [0, 0.33333333333333304]]",685.0524214096367,f,main,1.0,,,conjunction,
,html-keyboard-response,157,585766,0.0-4.0-1.4-1.64,aaaab,5d6ebbf926b44400175f445a,"[191, 44, 230, 97, 27, 172, 94, 38, 227, 234, 149, 151, 225, 38, 54, 33, 10, 31, 221, 159, 234, 11, 147, 104, 176, 55, 124, 209, 27, 247, 81, 5]",5f96dd9824dc39060be2c67f,5d6ebbf926b44400175f445a,5f96f6ac156c7e036d366de8,True,,,,,,,,,,,,,"<div style=""width:150px;height:56px;font-size:30px;text-align:center;"">correct!</div>",,,
,p5vs_yn,158,588317,0.0-4.0-1.4-0.65,aaaab,5d6ebbf926b44400175f445a,"[191, 44, 230, 97, 27, 172, 94, 38, 227, 234, 149, 151, 225, 38, 54, 33, 10, 31, 221, 159, 234, 11, 147, 104, 176, 55, 124, 209, 27, 247, 81, 5]",5f96dd9824dc39060be2c67f,5d6ebbf926b44400175f445a,5f96f6ac156c7e036d366de8,True,,,4.0,1.0,382.2892743732082,j,"[0.16666666666666602, -0.16666666666666602]","[[0, 0.16666666666666602], [0.16666666666666602, 0.16666666666666602], [-0.16666666666666602, 0.16666666666666602]]",962.5907256267965,j,main,1.0,,,shape,
,html-keyboard-response,159,589321,0.0-4.0-1.4-1.65,aaaab,5d6ebbf926b44400175f445a,"[191, 44, 230, 97, 27, 172, 94, 38, 227, 234, 149, 151, 225, 38, 54, 33, 10, 31, 221, 159, 234, 11, 147, 104, 176, 55, 124, 209, 27, 247, 81, 5]",5f96dd9824dc39060be2c67f,5d6ebbf926b44400175f445a,5f96f6ac156c7e036d366de8,True,,,,,,,,,,,,,"<div style=""width:150px;height:56px;font-size:30px;text-align:center;"">correct!</div>",,,
,p5vs_yn,160,591399,0.0-4.0-1.4-0.66,aaaab,5d6ebbf926b44400175f445a,"[191, 44, 230, 97, 27, 172, 94, 38, 227, 234, 149, 151, 225, 38, 54, 33, 10, 31, 221, 159, 234, 11, 147, 104, 176, 55, 124, 209, 27, 247, 81, 5]",5f96dd9824dc39060be2c67f,5d6ebbf926b44400175f445a,5f96f6ac156c7e036d366de8,True,,,8.0,1.0,383.55578715668526,j,"[-0.33333333333333304, 0.16666666666666602]","[[-0.16666666666666602, 0.16666666666666602], [0.33333333333333304, 0.33333333333333304], [0.33333333333333304, -0.16666666666666602], [0.33333333333333304, -0.33333333333333304], [0.33333333333333304, 0.16666666666666602], [-0.33333333333333304, 0], [0, 0.16666666666666602]]",486.4592128433287,j,main,1.0,,,shape,
,html-keyboard-response,161,592402,0.0-4.0-1.4-1.66,aaaab,5d6ebbf926b44400175f445a,"[191, 44, 230, 97, 27, 172, 94, 38, 227, 234, 149, 151, 225, 38, 54, 33, 10, 31, 221, 159, 234, 11, 147, 104, 176, 55, 124, 209, 27, 247, 81, 5]",5f96dd9824dc39060be2c67f,5d6ebbf926b44400175f445a,5f96f6ac156c7e036d366de8,True,,,,,,,,,,,,,"<div style=""width:150px;height:56px;font-size:30px;text-align:center;"">correct!</div>",,,
,p5vs_yn,162,594931,0.0-4.0-1.4-0.67,aaaab,5d6ebbf926b44400175f445a,"[191, 44, 230, 97, 27, 172, 94, 38, 227, 234, 149, 151, 225, 38, 54, 33, 10, 31, 221, 159, 234, 11, 147, 104, 176, 55, 124, 209, 27, 247, 81, 5]",5f96dd9824dc39060be2c67f,5d6ebbf926b44400175f445a,5f96f6ac156c7e036d366de8,True,,,8.0,0.0,562.2372865785146,f,"[0, 0.33333333333333304]","[[0, -0.16666666666666602], [-0.33333333333333304, -0.16666666666666602], [0.33333333333333304, 0], [0.33333333333333304, -0.16666666666666602], [-0.33333333333333304, -0.33333333333333304], [0, -0.33333333333333304], [-0.16666666666666602, 0]]",703.0377134215087,f,main,1.0,,,conjunction,
,html-keyboard-response,163,596305,0.0-4.0-1.4-1.67,aaaab,5d6ebbf926b44400175f445a,"[191, 44, 230, 97, 27, 172, 94, 38, 227, 234, 149, 151, 225, 38, 54, 33, 10, 31, 221, 159, 234, 11, 147, 104, 176, 55, 124, 209, 27, 247, 81, 5]",5f96dd9824dc39060be2c67f,5d6ebbf926b44400175f445a,5f96f6ac156c7e036d366de8,True,,,,,,,,,,,,,"<div style=""width:150px;height:56px;font-size:30px;text-align:center;"">correct!</div>",,,
,p5vs_yn,164,598448,0.0-4.0-1.4-0.68,aaaab,5d6ebbf926b44400175f445a,"[191, 44, 230, 97, 27, 172, 94, 38, 227, 234, 149, 151, 225, 38, 54, 33, 10, 31, 221, 159, 234, 11, 147, 104, 176, 55, 124, 209, 27, 247, 81, 5]",5f96dd9824dc39060be2c67f,5d6ebbf926b44400175f445a,5f96f6ac156c7e036d366de8,True,,,8.0,1.0,520.3153195193736,j,"[-0.16666666666666602, 0.16666666666666602]","[[0.16666666666666602, 0.16666666666666602], [0.33333333333333304, -0.33333333333333304], [0.33333333333333304, 0], [-0.16666666666666602, 0], [0.33333333333333304, -0.16666666666666602], [0.16666666666666602, -0.16666666666666602], [0, 0]]",399.879680480808,j,main,1.0,,,conjunction,
,html-keyboard-response,165,599450,0.0-4.0-1.4-1.68,aaaab,5d6ebbf926b44400175f445a,"[191, 44, 230, 97, 27, 172, 94, 38, 227, 234, 149, 151, 225, 38, 54, 33, 10, 31, 221, 159, 234, 11, 147, 104, 176, 55, 124, 209, 27, 247, 81, 5]",5f96dd9824dc39060be2c67f,5d6ebbf926b44400175f445a,5f96f6ac156c7e036d366de8,True,,,,,,,,,,,,,"<div style=""width:150px;height:56px;font-size:30px;text-align:center;"">correct!</div>",,,
,p5vs_yn,166,603615,0.0-4.0-1.4-0.69,aaaab,5d6ebbf926b44400175f445a,"[191, 44, 230, 97, 27, 172, 94, 38, 227, 234, 149, 151, 225, 38, 54, 33, 10, 31, 221, 159, 234, 11, 147, 104, 176, 55, 124, 209, 27, 247, 81, 5]",5f96dd9824dc39060be2c67f,5d6ebbf926b44400175f445a,5f96f6ac156c7e036d366de8,True,,,8.0,0.0,2435.338683784008,f,"[0, -0.33333333333333304]","[[0.16666666666666602, -0.33333333333333304], [-0.33333333333333304, 0.16666666666666602], [0.16666666666666602, 0.16666666666666602], [0, 0.33333333333333304], [-0.33333333333333304, -0.16666666666666602], [-0.16666666666666602, -0.16666666666666602], [-0.16666666666666602, -0.33333333333333304]]",522.0813162159175,f,main,1.0,,,shape,
,html-keyboard-response,167,604618,0.0-4.0-1.4-1.69,aaaab,5d6ebbf926b44400175f445a,"[191, 44, 230, 97, 27, 172, 94, 38, 227, 234, 149, 151, 225, 38, 54, 33, 10, 31, 221, 159, 234, 11, 147, 104, 176, 55, 124, 209, 27, 247, 81, 5]",5f96dd9824dc39060be2c67f,5d6ebbf926b44400175f445a,5f96f6ac156c7e036d366de8,True,,,,,,,,,,,,,"<div style=""width:150px;height:56px;font-size:30px;text-align:center;"">correct!</div>",,,
,p5vs_yn,168,606866,0.0-4.0-1.4-0.70,aaaab,5d6ebbf926b44400175f445a,"[191, 44, 230, 97, 27, 172, 94, 38, 227, 234, 149, 151, 225, 38, 54, 33, 10, 31, 221, 159, 234, 11, 147, 104, 176, 55, 124, 209, 27, 247, 81, 5]",5f96dd9824dc39060be2c67f,5d6ebbf926b44400175f445a,5f96f6ac156c7e036d366de8,True,,,4.0,0.0,639.5956068394007,f,"[0.16666666666666602, -0.33333333333333304]","[[0.33333333333333304, -0.33333333333333304], [0.16666666666666602, 0.33333333333333304], [-0.33333333333333304, 0.16666666666666602]]",398.0743931606412,f,main,1.0,,,shape,
,html-keyboard-response,169,607868,0.0-4.0-1.4-1.70,aaaab,5d6ebbf926b44400175f445a,"[191, 44, 230, 97, 27, 172, 94, 38, 227, 234, 149, 151, 225, 38, 54, 33, 10, 31, 221, 159, 234, 11, 147, 104, 176, 55, 124, 209, 27, 247, 81, 5]",5f96dd9824dc39060be2c67f,5d6ebbf926b44400175f445a,5f96f6ac156c7e036d366de8,True,,,,,,,,,,,,,"<div style=""width:150px;height:56px;font-size:30px;text-align:center;"">correct!</div>",,,
,p5vs_yn,170,609614,0.0-4.0-1.4-0.71,aaaab,5d6ebbf926b44400175f445a,"[191, 44, 230, 97, 27, 172, 94, 38, 227, 234, 149, 151, 225, 38, 54, 33, 10, 31, 221, 159, 234, 11, 147, 104, 176, 55, 124, 209, 27, 247, 81, 5]",5f96dd9824dc39060be2c67f,5d6ebbf926b44400175f445a,5f96f6ac156c7e036d366de8,True,,,4.0,1.0,449.06460046744905,j,"[0, 0.33333333333333304]","[[0.16666666666666602, 0.33333333333333304], [-0.33333333333333304, 0.33333333333333304], [-0.16666666666666602, 0.16666666666666602]]",82.92539953254163,j,main,1.0,,,conjunction,
,html-keyboard-response,171,610616,0.0-4.0-1.4-1.71,aaaab,5d6ebbf926b44400175f445a,"[191, 44, 230, 97, 27, 172, 94, 38, 227, 234, 149, 151, 225, 38, 54, 33, 10, 31, 221, 159, 234, 11, 147, 104, 176, 55, 124, 209, 27, 247, 81, 5]",5f96dd9824dc39060be2c67f,5d6ebbf926b44400175f445a,5f96f6ac156c7e036d366de8,True,,,,,,,,,,,,,"<div style=""width:150px;height:56px;font-size:30px;text-align:center;"">correct!</div>",,,
,p5vs_yn,172,613498,0.0-4.0-1.4-0.72,aaaab,5d6ebbf926b44400175f445a,"[191, 44, 230, 97, 27, 172, 94, 38, 227, 234, 149, 151, 225, 38, 54, 33, 10, 31, 221, 159, 234, 11, 147, 104, 176, 55, 124, 209, 27, 247, 81, 5]",5f96dd9824dc39060be2c67f,5d6ebbf926b44400175f445a,5f96f6ac156c7e036d366de8,True,,,4.0,1.0,1287.3626299074385,j,"[-0.16666666666666602, 0.33333333333333304]","[[0, 0], [0, -0.33333333333333304], [0.33333333333333304, -0.16666666666666602]]",380.61237009242177,j,main,1.0,,,conjunction,
,html-keyboard-response,173,614501,0.0-4.0-1.4-1.72,aaaab,5d6ebbf926b44400175f445a,"[191, 44, 230, 97, 27, 172, 94, 38, 227, 234, 149, 151, 225, 38, 54, 33, 10, 31, 221, 159, 234, 11, 147, 104, 176, 55, 124, 209, 27, 247, 81, 5]",5f96dd9824dc39060be2c67f,5d6ebbf926b44400175f445a,5f96f6ac156c7e036d366de8,True,,,,,,,,,,,,,"<div style=""width:150px;height:56px;font-size:30px;text-align:center;"">correct!</div>",,,
,p5vs_yn,174,617132,0.0-4.0-1.4-0.73,aaaab,5d6ebbf926b44400175f445a,"[191, 44, 230, 97, 27, 172, 94, 38, 227, 234, 149, 151, 225, 38, 54, 33, 10, 31, 221, 159, 234, 11, 147, 104, 176, 55, 124, 209, 27, 247, 81, 5]",5f96dd9824dc39060be2c67f,5d6ebbf926b44400175f445a,5f96f6ac156c7e036d366de8,True,,,8.0,1.0,465.75473767716903,j,"[-0.16666666666666602, -0.33333333333333304]","[[-0.16666666666666602, -0.16666666666666602], [0, 0], [0.33333333333333304, -0.16666666666666602], [0.33333333333333304, -0.33333333333333304], [-0.33333333333333304, -0.16666666666666602], [0.16666666666666602, 0.33333333333333304], [0, -0.33333333333333304]]",950.2102623227984,j,main,1.0,,,conjunction,
,html-keyboard-response,175,618135,0.0-4.0-1.4-1.73,aaaab,5d6ebbf926b44400175f445a,"[191, 44, 230, 97, 27, 172, 94, 38, 227, 234, 149, 151, 225, 38, 54, 33, 10, 31, 221, 159, 234, 11, 147, 104, 176, 55, 124, 209, 27, 247, 81, 5]",5f96dd9824dc39060be2c67f,5d6ebbf926b44400175f445a,5f96f6ac156c7e036d366de8,True,,,,,,,,,,,,,"<div style=""width:150px;height:56px;font-size:30px;text-align:center;"">correct!</div>",,,
,p5vs_yn,176,620082,0.0-4.0-1.4-0.74,aaaab,5d6ebbf926b44400175f445a,"[191, 44, 230, 97, 27, 172, 94, 38, 227, 234, 149, 151, 225, 38, 54, 33, 10, 31, 221, 159, 234, 11, 147, 104, 176, 55, 124, 209, 27, 247, 81, 5]",5f96dd9824dc39060be2c67f,5d6ebbf926b44400175f445a,5f96f6ac156c7e036d366de8,True,,,4.0,1.0,402.94692487397697,j,"[0, 0]","[[0.33333333333333304, 0], [0, 0.33333333333333304], [-0.33333333333333304, -0.16666666666666602]]",330.408075125888,j,main,1.0,,,shape,
,html-keyboard-response,177,621084,0.0-4.0-1.4-1.74,aaaab,5d6ebbf926b44400175f445a,"[191, 44, 230, 97, 27, 172, 94, 38, 227, 234, 149, 151, 225, 38, 54, 33, 10, 31, 221, 159, 234, 11, 147, 104, 176, 55, 124, 209, 27, 247, 81, 5]",5f96dd9824dc39060be2c67f,5d6ebbf926b44400175f445a,5f96f6ac156c7e036d366de8,True,,,,,,,,,,,,,"<div style=""width:150px;height:56px;font-size:30px;text-align:center;"">correct!</div>",,,
,p5vs_yn,178,623149,0.0-4.0-1.4-0.75,aaaab,5d6ebbf926b44400175f445a,"[191, 44, 230, 97, 27, 172, 94, 38, 227, 234, 149, 151, 225, 38, 54, 33, 10, 31, 221, 159, 234, 11, 147, 104, 176, 55, 124, 209, 27, 247, 81, 5]",5f96dd9824dc39060be2c67f,5d6ebbf926b44400175f445a,5f96f6ac156c7e036d366de8,True,,,8.0,0.0,620.658038976253,f,"[0.16666666666666602, 0.33333333333333304]","[[-0.16666666666666602, -0.33333333333333304], [0.33333333333333304, -0.16666666666666602], [0, 0.33333333333333304], [0.33333333333333304, 0], [-0.33333333333333304, 0.16666666666666602], [-0.16666666666666602, 0.16666666666666602], [-0.33333333333333304, -0.33333333333333304]]",238.82696102373302,f,main,1.0,,,conjunction,
,html-keyboard-response,179,624151,0.0-4.0-1.4-1.75,aaaab,5d6ebbf926b44400175f445a,"[191, 44, 230, 97, 27, 172, 94, 38, 227, 234, 149, 151, 225, 38, 54, 33, 10, 31, 221, 159, 234, 11, 147, 104, 176, 55, 124, 209, 27, 247, 81, 5]",5f96dd9824dc39060be2c67f,5d6ebbf926b44400175f445a,5f96f6ac156c7e036d366de8,True,,,,,,,,,,,,,"<div style=""width:150px;height:56px;font-size:30px;text-align:center;"">correct!</div>",,,
,p5vs_yn,180,626553,0.0-4.0-1.4-0.76,aaaab,5d6ebbf926b44400175f445a,"[191, 44, 230, 97, 27, 172, 94, 38, 227, 234, 149, 151, 225, 38, 54, 33, 10, 31, 221, 159, 234, 11, 147, 104, 176, 55, 124, 209, 27, 247, 81, 5]",5f96dd9824dc39060be2c67f,5d6ebbf926b44400175f445a,5f96f6ac156c7e036d366de8,True,,,4.0,0.0,473.91732715116814,f,"[0, -0.16666666666666602]","[[-0.16666666666666602, 0.33333333333333304], [0, 0], [-0.33333333333333304, 0.16666666666666602]]",720.397672848776,f,main,1.0,,,shape,
,html-keyboard-response,181,627555,0.0-4.0-1.4-1.76,aaaab,5d6ebbf926b44400175f445a,"[191, 44, 230, 97, 27, 172, 94, 38, 227, 234, 149, 151, 225, 38, 54, 33, 10, 31, 221, 159, 234, 11, 147, 104, 176, 55, 124, 209, 27, 247, 81, 5]",5f96dd9824dc39060be2c67f,5d6ebbf926b44400175f445a,5f96f6ac156c7e036d366de8,True,,,,,,,,,,,,,"<div style=""width:150px;height:56px;font-size:30px;text-align:center;"">correct!</div>",,,
,p5vs_yn,182,629664,0.0-4.0-1.4-0.77,aaaab,5d6ebbf926b44400175f445a,"[191, 44, 230, 97, 27, 172, 94, 38, 227, 234, 149, 151, 225, 38, 54, 33, 10, 31, 221, 159, 234, 11, 147, 104, 176, 55, 124, 209, 27, 247, 81, 5]",5f96dd9824dc39060be2c67f,5d6ebbf926b44400175f445a,5f96f6ac156c7e036d366de8,True,,,4.0,0.0,561.792012887774,f,"[0.16666666666666602, -0.33333333333333304]","[[0, 0.16666666666666602], [0.16666666666666602, 0], [0.33333333333333304, -0.16666666666666602]]",339.7029871121049,f,main,1.0,,,conjunction,
,html-keyboard-response,183,630666,0.0-4.0-1.4-1.77,aaaab,5d6ebbf926b44400175f445a,"[191, 44, 230, 97, 27, 172, 94, 38, 227, 234, 149, 151, 225, 38, 54, 33, 10, 31, 221, 159, 234, 11, 147, 104, 176, 55, 124, 209, 27, 247, 81, 5]",5f96dd9824dc39060be2c67f,5d6ebbf926b44400175f445a,5f96f6ac156c7e036d366de8,True,,,,,,,,,,,,,"<div style=""width:150px;height:56px;font-size:30px;text-align:center;"">correct!</div>",,,
,p5vs_yn,184,632475,0.0-4.0-1.4-0.78,aaaab,5d6ebbf926b44400175f445a,"[191, 44, 230, 97, 27, 172, 94, 38, 227, 234, 149, 151, 225, 38, 54, 33, 10, 31, 221, 159, 234, 11, 147, 104, 176, 55, 124, 209, 27, 247, 81, 5]",5f96dd9824dc39060be2c67f,5d6ebbf926b44400175f445a,5f96f6ac156c7e036d366de8,True,,,8.0,1.0,452.01809067686554,j,"[0.33333333333333304, 0.33333333333333304]","[[-0.16666666666666602, 0], [0.16666666666666602, 0], [0, 0], [0.33333333333333304, 0], [0, 0.33333333333333304], [-0.16666666666666602, 0.33333333333333304], [-0.33333333333333304, -0.16666666666666602]]",150.45690932311118,j,main,1.0,,,shape,
,html-keyboard-response,185,633478,0.0-4.0-1.4-1.78,aaaab,5d6ebbf926b44400175f445a,"[191, 44, 230, 97, 27, 172, 94, 38, 227, 234, 149, 151, 225, 38, 54, 33, 10, 31, 221, 159, 234, 11, 147, 104, 176, 55, 124, 209, 27, 247, 81, 5]",5f96dd9824dc39060be2c67f,5d6ebbf926b44400175f445a,5f96f6ac156c7e036d366de8,True,,,,,,,,,,,,,"<div style=""width:150px;height:56px;font-size:30px;text-align:center;"">correct!</div>",,,
,p5vs_yn,186,635966,0.0-4.0-1.4-0.79,aaaab,5d6ebbf926b44400175f445a,"[191, 44, 230, 97, 27, 172, 94, 38, 227, 234, 149, 151, 225, 38, 54, 33, 10, 31, 221, 159, 234, 11, 147, 104, 176, 55, 124, 209, 27, 247, 81, 5]",5f96dd9824dc39060be2c67f,5d6ebbf926b44400175f445a,5f96f6ac156c7e036d366de8,True,,,8.0,0.0,454.1316889495356,f,"[-0.33333333333333304, -0.16666666666666602]","[[-0.33333333333333304, -0.33333333333333304], [0.33333333333333304, -0.33333333333333304], [-0.16666666666666602, 0.16666666666666602], [0.33333333333333304, 0.16666666666666602], [0.16666666666666602, -0.16666666666666602], [0, 0], [0, 0.33333333333333304]]",818.0333110503852,f,main,1.0,,,shape,
,html-keyboard-response,187,636969,0.0-4.0-1.4-1.79,aaaab,5d6ebbf926b44400175f445a,"[191, 44, 230, 97, 27, 172, 94, 38, 227, 234, 149, 151, 225, 38, 54, 33, 10, 31, 221, 159, 234, 11, 147, 104, 176, 55, 124, 209, 27, 247, 81, 5]",5f96dd9824dc39060be2c67f,5d6ebbf926b44400175f445a,5f96f6ac156c7e036d366de8,True,,,,,,,,,,,,,"<div style=""width:150px;height:56px;font-size:30px;text-align:center;"">correct!</div>",,,
,instructions,188,639718,0.0-4.0-2.4,aaaab,5d6ebbf926b44400175f445a,"[191, 44, 230, 97, 27, 172, 94, 38, 227, 234, 149, 151, 225, 38, 54, 33, 10, 31, 221, 159, 234, 11, 147, 104, 176, 55, 124, 209, 27, 247, 81, 5]",5f96dd9824dc39060be2c67f,5d6ebbf926b44400175f445a,5f96f6ac156c7e036d366de8,True,"[{""page_index"":0,""viewing_time"":2744.7449999999953}]",2745.859999999986,,,,,,,,,,,,,,
,call-function,189,639719,0.0-4.0-3.4,aaaab,5d6ebbf926b44400175f445a,"[191, 44, 230, 97, 27, 172, 94, 38, 227, 234, 149, 151, 225, 38, 54, 33, 10, 31, 221, 159, 234, 11, 147, 104, 176, 55, 124, 209, 27, 247, 81, 5]",5f96dd9824dc39060be2c67f,5d6ebbf926b44400175f445a,5f96f6ac156c7e036d366de8,True,,,,,,,,,,,,,,,,
,survey-text,190,649731,0.0-5.0,aaaab,5d6ebbf926b44400175f445a,"[191, 44, 230, 97, 27, 172, 94, 38, 227, 234, 149, 151, 225, 38, 54, 33, 10, 31, 221, 159, 234, 11, 147, 104, 176, 55, 124, 209, 27, 247, 81, 5]",5f96dd9824dc39060be2c67f,5d6ebbf926b44400175f445a,5f96f6ac156c7e036d366de8,True,,9725.379999999888,,,,,,,,,,,,,,"{""worker_comments"":"" Great study!""}"
,p5Text,191,651979,0.0-6.0,aaaab,5d6ebbf926b44400175f445a,"[191, 44, 230, 97, 27, 172, 94, 38, 227, 234, 149, 151, 225, 38, 54, 33, 10, 31, 221, 159, 234, 11, 147, 104, 176, 55, 124, 209, 27, 247, 81, 5]",5f96dd9824dc39060be2c67f,5d6ebbf926b44400175f445a,5f96f6ac156c7e036d366de8,True,,,,,,,,,,,,,,,,
1.0,fullscreen,0,3198,0.0-0.0,aaaab,5acb92e9e1099600016ad073,"[146, 43, 57, 112, 59, 168, 244, 195, 216, 76, 203, 171, 105, 192, 251, 143, 250, 156, 98, 99, 19, 245, 228, 119, 127, 82, 242, 39, 79, 100, 127, 214]",5f96dd9824dc39060be2c67f,5acb92e9e1099600016ad073,5f96f6a8cce31c030ffcb2dc,True,,,,,,,,,,,,,,,,
,instructions,1,35578,0.0-1.0,aaaab,5acb92e9e1099600016ad073,"[146, 43, 57, 112, 59, 168, 244, 195, 216, 76, 203, 171, 105, 192, 251, 143, 250, 156, 98, 99, 19, 245, 228, 119, 127, 82, 242, 39, 79, 100, 127, 214]",5f96dd9824dc39060be2c67f,5acb92e9e1099600016ad073,5f96f6a8cce31c030ffcb2dc,True,"[{""page_index"":0,""viewing_time"":1802.1999999999998},{""page_index"":1,""viewing_time"":14810.599999999998},{""page_index"":2,""viewing_time"":9188.800000000003},{""page_index"":3,""viewing_time"":6573.5}]",32375.600000000002,,,,,,,,,,,,,,
,p5vs_yn,2,39422,0.0-2.0-1.0-0.0,aaaab,5acb92e9e1099600016ad073,"[146, 43, 57, 112, 59, 168, 244, 195, 216, 76, 203, 171, 105, 192, 251, 143, 250, 156, 98, 99, 19, 245, 228, 119, 127, 82, 242, 39, 79, 100, 127, 214]",5f96dd9824dc39060be2c67f,5acb92e9e1099600016ad073,5f96f6a8cce31c030ffcb2dc,True,,,3.0,1.0,1971.7442510310575,j,"[0.099999999999999, 0.30000000000000004]","[[-0.099999999999999, -0.099999999999999], [-0.30000000000000004, 0.099999999999999]]",644.655748968944,j,practice,1.0,,,,
,html-keyboard-response,3,40446,0.0-2.0-1.0-1.0,aaaab,5acb92e9e1099600016ad073,"[146, 43, 57, 112, 59, 168, 244, 195, 216, 76, 203, 171, 105, 192, 251, 143, 250, 156, 98, 99, 19, 245, 228, 119, 127, 82, 242, 39, 79, 100, 127, 214]",5f96dd9824dc39060be2c67f,5acb92e9e1099600016ad073,5f96f6a8cce31c030ffcb2dc,True,,,,,,,,,,,,,"<div style=""width:150px;height:56px;font-size:30px;text-align:center;"">correct!</div>",,,
,p5vs_yn,4,44206,0.0-2.0-1.0-0.1,aaaab,5acb92e9e1099600016ad073,"[146, 43, 57, 112, 59, 168, 244, 195, 216, 76, 203, 171, 105, 192, 251, 143, 250, 156, 98, 99, 19, 245, 228, 119, 127, 82, 242, 39, 79, 100, 127, 214]",5f96dd9824dc39060be2c67f,5acb92e9e1099600016ad073,5f96f6a8cce31c030ffcb2dc,True,,,3.0,0.0,2064.7203528072714,f,"[0.099999999999999, -0.099999999999999]","[[0.30000000000000004, -0.30000000000000004], [0.099999999999999, 0.099999999999999]]",484.5796471927315,f,practice,1.0,,,,
,html-keyboard-response,5,45227,0.0-2.0-1.0-1.1,aaaab,5acb92e9e1099600016ad073,"[146, 43, 57, 112, 59, 168, 244, 195, 216, 76, 203, 171, 105, 192, 251, 143, 250, 156, 98, 99, 19, 245, 228, 119, 127, 82, 242, 39, 79, 100, 127, 214]",5f96dd9824dc39060be2c67f,5acb92e9e1099600016ad073,5f96f6a8cce31c030ffcb2dc,True,,,,,,,,,,,,,"<div style=""width:150px;height:56px;font-size:30px;text-align:center;"">correct!</div>",,,
,p5vs_yn,6,47619,0.0-2.0-1.0-0.2,aaaab,5acb92e9e1099600016ad073,"[146, 43, 57, 112, 59, 168, 244, 195, 216, 76, 203, 171, 105, 192, 251, 143, 250, 156, 98, 99, 19, 245, 228, 119, 127, 82, 242, 39, 79, 100, 127, 214]",5f96dd9824dc39060be2c67f,5acb92e9e1099600016ad073,5f96f6a8cce31c030ffcb2dc,True,,,3.0,1.0,1131.7154035214335,j,"[0.099999999999999, 0.30000000000000004]","[[-0.30000000000000004, 0.30000000000000004], [-0.099999999999999, -0.30000000000000004]]",42.28459647856653,j,practice,1.0,,,,
,html-keyboard-response,7,48634,0.0-2.0-1.0-1.2,aaaab,5acb92e9e1099600016ad073,"[146, 43, 57, 112, 59, 168, 244, 195, 216, 76, 203, 171, 105, 192, 251, 143, 250, 156, 98, 99, 19, 245, 228, 119, 127, 82, 242, 39, 79, 100, 127, 214]",5f96dd9824dc39060be2c67f,5acb92e9e1099600016ad073,5f96f6a8cce31c030ffcb2dc,True,,,,,,,,,,,,,"<div style=""width:150px;height:56px;font-size:30px;text-align:center;"">correct!</div>",,,
,p5vs_yn,8,51298,0.0-2.0-1.0-0.3,aaaab,5acb92e9e1099600016ad073,"[146, 43, 57, 112, 59, 168, 244, 195, 216, 76, 203, 171, 105, 192, 251, 143, 250, 156, 98, 99, 19, 245, 228, 119, 127, 82, 242, 39, 79, 100, 127, 214]",5f96dd9824dc39060be2c67f,5acb92e9e1099600016ad073,5f96f6a8cce31c030ffcb2dc,True,,,3.0,0.0,1081.3622726283938,f,"[0.30000000000000004, 0.099999999999999]","[[0.099999999999999, -0.099999999999999], [0.30000000000000004, 0.30000000000000004]]",366.83772737160325,f,practice,1.0,,,,
,html-keyboard-response,9,52320,0.0-2.0-1.0-1.3,aaaab,5acb92e9e1099600016ad073,"[146, 43, 57, 112, 59, 168, 244, 195, 216, 76, 203, 171, 105, 192, 251, 143, 250, 156, 98, 99, 19, 245, 228, 119, 127, 82, 242, 39, 79, 100, 127, 214]",5f96dd9824dc39060be2c67f,5acb92e9e1099600016ad073,5f96f6a8cce31c030ffcb2dc,True,,,,,,,,,,,,,"<div style=""width:150px;height:56px;font-size:30px;text-align:center;"">correct!</div>",,,
,p5vs_yn,10,54996,0.0-2.0-1.0-0.4,aaaab,5acb92e9e1099600016ad073,"[146, 43, 57, 112, 59, 168, 244, 195, 216, 76, 203, 171, 105, 192, 251, 143, 250, 156, 98, 99, 19, 245, 228, 119, 127, 82, 242, 39, 79, 100, 127, 214]",5f96dd9824dc39060be2c67f,5acb92e9e1099600016ad073,5f96f6a8cce31c030ffcb2dc,True,,,3.0,0.0,822.6096573188843,f,"[-0.099999999999999, -0.30000000000000004]","[[0.30000000000000004, 0.099999999999999], [-0.30000000000000004, 0.30000000000000004]]",642.7903426811099,f,practice,1.0,,,,
,html-keyboard-response,11,56008,0.0-2.0-1.0-1.4,aaaab,5acb92e9e1099600016ad073,"[146, 43, 57, 112, 59, 168, 244, 195, 216, 76, 203, 171, 105, 192, 251, 143, 250, 156, 98, 99, 19, 245, 228, 119, 127, 82, 242, 39, 79, 100, 127, 214]",5f96dd9824dc39060be2c67f,5acb92e9e1099600016ad073,5f96f6a8cce31c030ffcb2dc,True,,,,,,,,,,,,,"<div style=""width:150px;height:56px;font-size:30px;text-align:center;"">correct!</div>",,,
,p5vs_yn,12,58358,0.0-2.0-1.0-0.5,aaaab,5acb92e9e1099600016ad073,"[146, 43, 57, 112, 59, 168, 244, 195, 216, 76, 203, 171, 105, 192, 251, 143, 250, 156, 98, 99, 19, 245, 228, 119, 127, 82, 242, 39, 79, 100, 127, 214]",5f96dd9824dc39060be2c67f,5acb92e9e1099600016ad073,5f96f6a8cce31c030ffcb2dc,True,,,3.0,1.0,792.201242800802,j,"[0.099999999999999, 0.30000000000000004]","[[-0.30000000000000004, 0.099999999999999], [-0.099999999999999, -0.30000000000000004]]",350.298757199198,j,practice,1.0,,,,
