success,trial_type,trial_index,time_elapsed,internal_node_id,protocol_sum,subject_sum,followed_instructions,view_history,rt,set_size,target_present,RT,response,target_position,distractor_positions,jitter,correct_response,test_part,correct,stimulus,key_press,responses
1.0,fullscreen,0,3717,0.0-0.0,f078aa2862041786868ef9f2ad23336df49386eb98fe8259951830bdf7c3dbfd,"[170, 33, 87, 223, 61, 66, 125, 108, 2, 36, 135, 18, 29, 75, 206, 224, 227, 1, 137, 46, 46, 220, 243, 205, 41, 165, 168, 159, 183, 224, 152, 208]",True,,,,,,,,,,,,,,,
,instructions,1,33595,0.0-1.0,f078aa2862041786868ef9f2ad23336df49386eb98fe8259951830bdf7c3dbfd,"[170, 33, 87, 223, 61, 66, 125, 108, 2, 36, 135, 18, 29, 75, 206, 224, 227, 1, 137, 46, 46, 220, 243, 205, 41, 165, 168, 159, 183, 224, 152, 208]",True,"[{""page_index"":0,""viewing_time"":3145.814999938011},{""page_index"":1,""viewing_time"":15558.474999968894},{""page_index"":2,""viewing_time"":8408.04000000935},{""page_index"":3,""viewing_time"":2759.805000037886}]",29874.284999910742,,,,,,,,,,,,,
,p5vs_yn,2,44146,0.0-2.0-1.0-0.0,f078aa2862041786868ef9f2ad23336df49386eb98fe8259951830bdf7c3dbfd,"[170, 33, 87, 223, 61, 66, 125, 108, 2, 36, 135, 18, 29, 75, 206, 224, 227, 1, 137, 46, 46, 220, 243, 205, 41, 165, 168, 159, 183, 224, 152, 208]",True,,,3.0,1.0,8739.008167944849,j,"[-0.30000000000000004, -0.099999999999999]","[[-0.099999999999999, 0.099999999999999], [0.30000000000000004, -0.099999999999999]]",565.4018321074545,j,practice,1.0,,,
,html-keyboard-response,3,45152,0.0-2.0-1.0-1.0,f078aa2862041786868ef9f2ad23336df49386eb98fe8259951830bdf7c3dbfd,"[170, 33, 87, 223, 61, 66, 125, 108, 2, 36, 135, 18, 29, 75, 206, 224, 227, 1, 137, 46, 46, 220, 243, 205, 41, 165, 168, 159, 183, 224, 152, 208]",True,,,,,,,,,,,,,"<div style=""width:150px;height:56px;font-size:30px;text-align:center;"">correct!</div>",,
,p5vs_yn,4,48508,0.0-2.0-1.0-0.1,f078aa2862041786868ef9f2ad23336df49386eb98fe8259951830bdf7c3dbfd,"[170, 33, 87, 223, 61, 66, 125, 108, 2, 36, 135, 18, 29, 75, 206, 224, 227, 1, 137, 46, 46, 220, 243, 205, 41, 165, 168, 159, 183, 224, 152, 208]",True,,,3.0,0.0,2041.7049711802974,f,"[-0.099999999999999, 0.099999999999999]","[[0.099999999999999, -0.30000000000000004], [-0.30000000000000004, 0.099999999999999]]",97.44502883404493,f,practice,1.0,,,
,html-keyboard-response,5,49511,0.0-2.0-1.0-1.1,f078aa2862041786868ef9f2ad23336df49386eb98fe8259951830bdf7c3dbfd,"[170, 33, 87, 223, 61, 66, 125, 108, 2, 36, 135, 18, 29, 75, 206, 224, 227, 1, 137, 46, 46, 220, 243, 205, 41, 165, 168, 159, 183, 224, 152, 208]",True,,,,,,,,,,,,,"<div style=""width:150px;height:56px;font-size:30px;text-align:center;"">correct!</div>",,
,p5vs_yn,6,51891,0.0-2.0-1.0-0.2,f078aa2862041786868ef9f2ad23336df49386eb98fe8259951830bdf7c3dbfd,"[170, 33, 87, 223, 61, 66, 125, 108, 2, 36, 135, 18, 29, 75, 206, 224, 227, 1, 137, 46, 46, 220, 243, 205, 41, 165, 168, 159, 183, 224, 152, 208]",True,,,3.0,0.0,571.8245211290196,f,"[0.30000000000000004, 0.099999999999999]","[[0.30000000000000004, -0.30000000000000004], [0.099999999999999, -0.099999999999999]]",598.1654787901789,f,practice,1.0,,,
,html-keyboard-response,7,52894,0.0-2.0-1.0-1.2,f078aa2862041786868ef9f2ad23336df49386eb98fe8259951830bdf7c3dbfd,"[170, 33, 87, 223, 61, 66, 125, 108, 2, 36, 135, 18, 29, 75, 206, 224, 227, 1, 137, 46, 46, 220, 243, 205, 41, 165, 168, 159, 183, 224, 152, 208]",True,,,,,,,,,,,,,"<div style=""width:150px;height:56px;font-size:30px;text-align:center;"">correct!</div>",,
,p5vs_yn,8,55027,0.0-2.0-1.0-0.3,f078aa2862041786868ef9f2ad23336df49386eb98fe8259951830bdf7c3dbfd,"[170, 33, 87, 223, 61, 66, 125, 108, 2, 36, 135, 18, 29, 75, 206, 224, 227, 1, 137, 46, 46, 220, 243, 205, 41, 165, 168, 159, 183, 224, 152, 208]",True,,,3.0,1.0,569.6854728274047,f,"[-0.099999999999999, -0.30000000000000004]","[[0.30000000000000004, 0.30000000000000004], [-0.30000000000000004, -0.30000000000000004]]",355.06952716968954,j,practice,0.0,,,
,html-keyboard-response,9,56531,0.0-2.0-1.0-1.3,f078aa2862041786868ef9f2ad23336df49386eb98fe8259951830bdf7c3dbfd,"[170, 33, 87, 223, 61, 66, 125, 108, 2, 36, 135, 18, 29, 75, 206, 224, 227, 1, 137, 46, 46, 220, 243, 205, 41, 165, 168, 159, 183, 224, 152, 208]",True,,,,,,,,,,,,,"<div style=""width:150px;height:56px;border:0px;font-size:30px;text-align:center"">wrong.</div>",,
,p5vs_yn,10,59690,0.0-2.0-1.0-0.4,f078aa2862041786868ef9f2ad23336df49386eb98fe8259951830bdf7c3dbfd,"[170, 33, 87, 223, 61, 66, 125, 108, 2, 36, 135, 18, 29, 75, 206, 224, 227, 1, 137, 46, 46, 220, 243, 205, 41, 165, 168, 159, 183, 224, 152, 208]",True,,,3.0,1.0,1218.4175007976592,j,"[-0.099999999999999, -0.30000000000000004]","[[-0.099999999999999, -0.099999999999999], [0.099999999999999, 0.30000000000000004]]",726.4874991960824,j,practice,1.0,,,
,html-keyboard-response,11,60694,0.0-2.0-1.0-1.4,f078aa2862041786868ef9f2ad23336df49386eb98fe8259951830bdf7c3dbfd,"[170, 33, 87, 223, 61, 66, 125, 108, 2, 36, 135, 18, 29, 75, 206, 224, 227, 1, 137, 46, 46, 220, 243, 205, 41, 165, 168, 159, 183, 224, 152, 208]",True,,,,,,,,,,,,,"<div style=""width:150px;height:56px;font-size:30px;text-align:center;"">correct!</div>",,
,p5vs_yn,12,63274,0.0-2.0-1.0-0.5,f078aa2862041786868ef9f2ad23336df49386eb98fe8259951830bdf7c3dbfd,"[170, 33, 87, 223, 61, 66, 125, 108, 2, 36, 135, 18, 29, 75, 206, 224, 227, 1, 137, 46, 46, 220, 243, 205, 41, 165, 168, 159, 183, 224, 152, 208]",True,,,3.0,0.0,684.2175090685487,f,"[-0.099999999999999, 0.099999999999999]","[[0.099999999999999, -0.30000000000000004], [0.30000000000000004, 0.099999999999999]]",687.5474909320474,f,practice,1.0,,,
,html-keyboard-response,13,64279,0.0-2.0-1.0-1.5,f078aa2862041786868ef9f2ad23336df49386eb98fe8259951830bdf7c3dbfd,"[170, 33, 87, 223, 61, 66, 125, 108, 2, 36, 135, 18, 29, 75, 206, 224, 227, 1, 137, 46, 46, 220, 243, 205, 41, 165, 168, 159, 183, 224, 152, 208]",True,,,,,,,,,,,,,"<div style=""width:150px;height:56px;font-size:30px;text-align:center;"">correct!</div>",,
,instructions,14,78313,0.0-3.0,f078aa2862041786868ef9f2ad23336df49386eb98fe8259951830bdf7c3dbfd,"[170, 33, 87, 223, 61, 66, 125, 108, 2, 36, 135, 18, 29, 75, 206, 224, 227, 1, 137, 46, 46, 220, 243, 205, 41, 165, 168, 159, 183, 224, 152, 208]",True,"[{""page_index"":0,""viewing_time"":9583.764999988489},{""page_index"":1,""viewing_time"":4438.970000017434}]",14023.455000016838,,,,,,,,,,,,,
,p5vs_yn,15,81378,0.0-4.0-0.0,f078aa2862041786868ef9f2ad23336df49386eb98fe8259951830bdf7c3dbfd,"[170, 33, 87, 223, 61, 66, 125, 108, 2, 36, 135, 18, 29, 75, 206, 224, 227, 1, 137, 46, 46, 220, 243, 205, 41, 165, 168, 159, 183, 224, 152, 208]",True,,,8.0,0.0,930.5081222672015,j,"[0.16666666666666602, 0.33333333333333304]","[[0.33333333333333304, 0.16666666666666602], [0, -0.33333333333333304], [0.33333333333333304, -0.33333333333333304], [-0.33333333333333304, -0.33333333333333304], [0.16666666666666602, 0], [0, -0.16666666666666602], [0.33333333333333304, 0]]",927.4068777449429,f,absence1,0.0,,,
,html-keyboard-response,16,82880,0.0-4.0-1.0,f078aa2862041786868ef9f2ad23336df49386eb98fe8259951830bdf7c3dbfd,"[170, 33, 87, 223, 61, 66, 125, 108, 2, 36, 135, 18, 29, 75, 206, 224, 227, 1, 137, 46, 46, 220, 243, 205, 41, 165, 168, 159, 183, 224, 152, 208]",True,,,,,,,,,,,,,"<div style=""width:150px;height:56px;border:0px;font-size:30px;text-align:center"">wrong.</div>",,
,p5vs_yn,17,84758,0.0-4.0-0.1,f078aa2862041786868ef9f2ad23336df49386eb98fe8259951830bdf7c3dbfd,"[170, 33, 87, 223, 61, 66, 125, 108, 2, 36, 135, 18, 29, 75, 206, 224, 227, 1, 137, 46, 46, 220, 243, 205, 41, 165, 168, 159, 183, 224, 152, 208]",True,,,8.0,0.0,565.2838790090755,f,"[-0.16666666666666602, 0.33333333333333304]","[[0, 0.16666666666666602], [0.16666666666666602, -0.33333333333333304], [0, -0.16666666666666602], [0.33333333333333304, -0.33333333333333304], [0.16666666666666602, 0.16666666666666602], [-0.16666666666666602, -0.33333333333333304], [-0.33333333333333304, 0.16666666666666602]]",101.05112101882696,f,absence1,1.0,,,
,html-keyboard-response,18,85761,0.0-4.0-1.1,f078aa2862041786868ef9f2ad23336df49386eb98fe8259951830bdf7c3dbfd,"[170, 33, 87, 223, 61, 66, 125, 108, 2, 36, 135, 18, 29, 75, 206, 224, 227, 1, 137, 46, 46, 220, 243, 205, 41, 165, 168, 159, 183, 224, 152, 208]",True,,,,,,,,,,,,,"<div style=""width:150px;height:56px;font-size:30px;text-align:center;"">correct!</div>",,
,p5vs_yn,19,88541,0.0-4.0-0.2,f078aa2862041786868ef9f2ad23336df49386eb98fe8259951830bdf7c3dbfd,"[170, 33, 87, 223, 61, 66, 125, 108, 2, 36, 135, 18, 29, 75, 206, 224, 227, 1, 137, 46, 46, 220, 243, 205, 41, 165, 168, 159, 183, 224, 152, 208]",True,,,4.0,0.0,731.9802250247449,f,"[0, 0.16666666666666602]","[[0.33333333333333304, 0.16666666666666602], [-0.16666666666666602, 0], [-0.33333333333333304, -0.16666666666666602]]",833.7647749576718,f,absence1,1.0,,,
,html-keyboard-response,20,89545,0.0-4.0-1.2,f078aa2862041786868ef9f2ad23336df49386eb98fe8259951830bdf7c3dbfd,"[170, 33, 87, 223, 61, 66, 125, 108, 2, 36, 135, 18, 29, 75, 206, 224, 227, 1, 137, 46, 46, 220, 243, 205, 41, 165, 168, 159, 183, 224, 152, 208]",True,,,,,,,,,,,,,"<div style=""width:150px;height:56px;font-size:30px;text-align:center;"">correct!</div>",,
,p5vs_yn,21,92125,0.0-4.0-0.3,f078aa2862041786868ef9f2ad23336df49386eb98fe8259951830bdf7c3dbfd,"[170, 33, 87, 223, 61, 66, 125, 108, 2, 36, 135, 18, 29, 75, 206, 224, 227, 1, 137, 46, 46, 220, 243, 205, 41, 165, 168, 159, 183, 224, 152, 208]",True,,,4.0,0.0,792.1476123854518,f,"[-0.16666666666666602, 0]","[[-0.33333333333333304, -0.33333333333333304], [0.16666666666666602, -0.16666666666666602], [-0.33333333333333304, 0.33333333333333304]]",571.9173876568675,f,absence1,1.0,,,
,html-keyboard-response,22,93128,0.0-4.0-1.3,f078aa2862041786868ef9f2ad23336df49386eb98fe8259951830bdf7c3dbfd,"[170, 33, 87, 223, 61, 66, 125, 108, 2, 36, 135, 18, 29, 75, 206, 224, 227, 1, 137, 46, 46, 220, 243, 205, 41, 165, 168, 159, 183, 224, 152, 208]",True,,,,,,,,,,,,,"<div style=""width:150px;height:56px;font-size:30px;text-align:center;"">correct!</div>",,
,p5vs_yn,23,95156,0.0-5.0-0.0,f078aa2862041786868ef9f2ad23336df49386eb98fe8259951830bdf7c3dbfd,"[170, 33, 87, 223, 61, 66, 125, 108, 2, 36, 135, 18, 29, 75, 206, 224, 227, 1, 137, 46, 46, 220, 243, 205, 41, 165, 168, 159, 183, 224, 152, 208]",True,,,4.0,1.0,811.0381037229672,j,"[-0.16666666666666602, 0.33333333333333304]","[[0.16666666666666602, -0.16666666666666602], [0.16666666666666602, -0.33333333333333304], [0.33333333333333304, 0.33333333333333304]]",8.951896335929632,j,absence1,1.0,,,
,html-keyboard-response,24,96160,0.0-5.0-1.0,f078aa2862041786868ef9f2ad23336df49386eb98fe8259951830bdf7c3dbfd,"[170, 33, 87, 223, 61, 66, 125, 108, 2, 36, 135, 18, 29, 75, 206, 224, 227, 1, 137, 46, 46, 220, 243, 205, 41, 165, 168, 159, 183, 224, 152, 208]",True,,,,,,,,,,,,,"<div style=""width:150px;height:56px;font-size:30px;text-align:center;"">correct!</div>",,
,p5vs_yn,25,98856,0.0-5.0-0.1,f078aa2862041786868ef9f2ad23336df49386eb98fe8259951830bdf7c3dbfd,"[170, 33, 87, 223, 61, 66, 125, 108, 2, 36, 135, 18, 29, 75, 206, 224, 227, 1, 137, 46, 46, 220, 243, 205, 41, 165, 168, 159, 183, 224, 152, 208]",True,,,4.0,1.0,597.2636568592861,j,"[0, -0.16666666666666602]","[[0.16666666666666602, -0.33333333333333304], [0.33333333333333304, -0.33333333333333304], [-0.16666666666666602, 0]]",887.2313431929797,j,absence1,1.0,,,
,html-keyboard-response,26,99859,0.0-5.0-1.1,f078aa2862041786868ef9f2ad23336df49386eb98fe8259951830bdf7c3dbfd,"[170, 33, 87, 223, 61, 66, 125, 108, 2, 36, 135, 18, 29, 75, 206, 224, 227, 1, 137, 46, 46, 220, 243, 205, 41, 165, 168, 159, 183, 224, 152, 208]",True,,,,,,,,,,,,,"<div style=""width:150px;height:56px;font-size:30px;text-align:center;"">correct!</div>",,
,p5vs_yn,27,101892,0.0-5.0-0.2,f078aa2862041786868ef9f2ad23336df49386eb98fe8259951830bdf7c3dbfd,"[170, 33, 87, 223, 61, 66, 125, 108, 2, 36, 135, 18, 29, 75, 206, 224, 227, 1, 137, 46, 46, 220, 243, 205, 41, 165, 168, 159, 183, 224, 152, 208]",True,,,8.0,1.0,698.7945832777768,j,"[0.33333333333333304, 0.16666666666666602]","[[-0.33333333333333304, 0.33333333333333304], [0, -0.16666666666666602], [-0.33333333333333304, 0.16666666666666602], [-0.16666666666666602, -0.33333333333333304], [0, 0], [0, -0.33333333333333304], [-0.16666666666666602, -0.16666666666666602]]",125.52041676826775,j,absence1,1.0,,,
,html-keyboard-response,28,102896,0.0-5.0-1.2,f078aa2862041786868ef9f2ad23336df49386eb98fe8259951830bdf7c3dbfd,"[170, 33, 87, 223, 61, 66, 125, 108, 2, 36, 135, 18, 29, 75, 206, 224, 227, 1, 137, 46, 46, 220, 243, 205, 41, 165, 168, 159, 183, 224, 152, 208]",True,,,,,,,,,,,,,"<div style=""width:150px;height:56px;font-size:30px;text-align:center;"">correct!</div>",,
,p5vs_yn,29,105541,0.0-5.0-0.3,f078aa2862041786868ef9f2ad23336df49386eb98fe8259951830bdf7c3dbfd,"[170, 33, 87, 223, 61, 66, 125, 108, 2, 36, 135, 18, 29, 75, 206, 224, 227, 1, 137, 46, 46, 220, 243, 205, 41, 165, 168, 159, 183, 224, 152, 208]",True,,,8.0,1.0,653.0921356286854,j,"[-0.16666666666666602, -0.33333333333333304]","[[0, -0.33333333333333304], [0.33333333333333304, -0.33333333333333304], [0, -0.16666666666666602], [-0.33333333333333304, -0.33333333333333304], [0.33333333333333304, 0.33333333333333304], [0.16666666666666602, -0.16666666666666602], [0.16666666666666602, -0.33333333333333304]]",780.0028643105179,j,absence1,1.0,,,
,html-keyboard-response,30,106544,0.0-5.0-1.3,f078aa2862041786868ef9f2ad23336df49386eb98fe8259951830bdf7c3dbfd,"[170, 33, 87, 223, 61, 66, 125, 108, 2, 36, 135, 18, 29, 75, 206, 224, 227, 1, 137, 46, 46, 220, 243, 205, 41, 165, 168, 159, 183, 224, 152, 208]",True,,,,,,,,,,,,,"<div style=""width:150px;height:56px;font-size:30px;text-align:center;"">correct!</div>",,
,p5vs_yn,31,108924,0.0-6.0-0.0,f078aa2862041786868ef9f2ad23336df49386eb98fe8259951830bdf7c3dbfd,"[170, 33, 87, 223, 61, 66, 125, 108, 2, 36, 135, 18, 29, 75, 206, 224, 227, 1, 137, 46, 46, 220, 243, 205, 41, 165, 168, 159, 183, 224, 152, 208]",True,,,8.0,0.0,615.2020667912439,f,"[-0.16666666666666602, 0.33333333333333304]","[[-0.33333333333333304, 0], [0.33333333333333304, -0.33333333333333304], [0.16666666666666602, -0.16666666666666602], [0.16666666666666602, 0], [-0.16666666666666602, 0.16666666666666602], [0.33333333333333304, 0.33333333333333304], [-0.16666666666666602, -0.16666666666666602]]",550.9729331824929,f,absence1,1.0,,,
,html-keyboard-response,32,109927,0.0-6.0-1.0,f078aa2862041786868ef9f2ad23336df49386eb98fe8259951830bdf7c3dbfd,"[170, 33, 87, 223, 61, 66, 125, 108, 2, 36, 135, 18, 29, 75, 206, 224, 227, 1, 137, 46, 46, 220, 243, 205, 41, 165, 168, 159, 183, 224, 152, 208]",True,,,,,,,,,,,,,"<div style=""width:150px;height:56px;font-size:30px;text-align:center;"">correct!</div>",,
,p5vs_yn,33,111756,0.0-6.0-0.1,f078aa2862041786868ef9f2ad23336df49386eb98fe8259951830bdf7c3dbfd,"[170, 33, 87, 223, 61, 66, 125, 108, 2, 36, 135, 18, 29, 75, 206, 224, 227, 1, 137, 46, 46, 220, 243, 205, 41, 165, 168, 159, 183, 224, 152, 208]",True,,,4.0,0.0,486.7309777298942,f,"[-0.16666666666666602, 0.33333333333333304]","[[0.33333333333333304, -0.16666666666666602], [0.33333333333333304, -0.33333333333333304], [-0.33333333333333304, 0.33333333333333304]]",132.879022276029,f,absence1,1.0,,,
,html-keyboard-response,34,112760,0.0-6.0-1.1,f078aa2862041786868ef9f2ad23336df49386eb98fe8259951830bdf7c3dbfd,"[170, 33, 87, 223, 61, 66, 125, 108, 2, 36, 135, 18, 29, 75, 206, 224, 227, 1, 137, 46, 46, 220, 243, 205, 41, 165, 168, 159, 183, 224, 152, 208]",True,,,,,,,,,,,,,"<div style=""width:150px;height:56px;font-size:30px;text-align:center;"">correct!</div>",,
,p5vs_yn,35,114890,0.0-6.0-0.2,f078aa2862041786868ef9f2ad23336df49386eb98fe8259951830bdf7c3dbfd,"[170, 33, 87, 223, 61, 66, 125, 108, 2, 36, 135, 18, 29, 75, 206, 224, 227, 1, 137, 46, 46, 220, 243, 205, 41, 165, 168, 159, 183, 224, 152, 208]",True,,,8.0,0.0,547.4067336879671,f,"[-0.33333333333333304, 0]","[[0.33333333333333304, 0], [0.33333333333333304, 0.16666666666666602], [-0.16666666666666602, 0], [0.16666666666666602, -0.33333333333333304], [0.16666666666666602, 0.16666666666666602], [0, 0.16666666666666602], [0, -0.33333333333333304]]",370.21826626732945,f,absence1,1.0,,,
,html-keyboard-response,36,115895,0.0-6.0-1.2,f078aa2862041786868ef9f2ad23336df49386eb98fe8259951830bdf7c3dbfd,"[170, 33, 87, 223, 61, 66, 125, 108, 2, 36, 135, 18, 29, 75, 206, 224, 227, 1, 137, 46, 46, 220, 243, 205, 41, 165, 168, 159, 183, 224, 152, 208]",True,,,,,,,,,,,,,"<div style=""width:150px;height:56px;font-size:30px;text-align:center;"">correct!</div>",,
,p5vs_yn,37,118657,0.0-6.0-0.3,f078aa2862041786868ef9f2ad23336df49386eb98fe8259951830bdf7c3dbfd,"[170, 33, 87, 223, 61, 66, 125, 108, 2, 36, 135, 18, 29, 75, 206, 224, 227, 1, 137, 46, 46, 220, 243, 205, 41, 165, 168, 159, 183, 224, 152, 208]",True,,,4.0,0.0,641.4492739830166,f,"[0, -0.16666666666666602]","[[-0.33333333333333304, 0.33333333333333304], [-0.33333333333333304, -0.16666666666666602], [0, 0]]",909.4407260417938,f,absence1,1.0,,,
,html-keyboard-response,38,119661,0.0-6.0-1.3,f078aa2862041786868ef9f2ad23336df49386eb98fe8259951830bdf7c3dbfd,"[170, 33, 87, 223, 61, 66, 125, 108, 2, 36, 135, 18, 29, 75, 206, 224, 227, 1, 137, 46, 46, 220, 243, 205, 41, 165, 168, 159, 183, 224, 152, 208]",True,,,,,,,,,,,,,"<div style=""width:150px;height:56px;font-size:30px;text-align:center;"">correct!</div>",,
,survey-text,39,125130,0.0-7.0,f078aa2862041786868ef9f2ad23336df49386eb98fe8259951830bdf7c3dbfd,"[170, 33, 87, 223, 61, 66, 125, 108, 2, 36, 135, 18, 29, 75, 206, 224, 227, 1, 137, 46, 46, 220, 243, 205, 41, 165, 168, 159, 183, 224, 152, 208]",True,,5448.120000073686,,,,,,,,,,,,,"{""worker_comments"":""""}"
,p5Text,40,129670,0.0-8.0,f078aa2862041786868ef9f2ad23336df49386eb98fe8259951830bdf7c3dbfd,"[170, 33, 87, 223, 61, 66, 125, 108, 2, 36, 135, 18, 29, 75, 206, 224, 227, 1, 137, 46, 46, 220, 243, 205, 41, 165, 168, 159, 183, 224, 152, 208]",True,,,,,,,,,,,,,,,
1.0,fullscreen,0,4398,0.0-0.0,f078aa2862041786868ef9f2ad23336df49386eb98fe8259951830bdf7c3dbfd,"[170, 33, 87, 223, 61, 66, 125, 108, 2, 36, 135, 18, 29, 75, 206, 224, 227, 1, 137, 46, 46, 220, 243, 205, 41, 165, 168, 159, 183, 224, 152, 208]",True,,,,,,,,,,,,,,,
,instructions,1,31284,0.0-1.0,f078aa2862041786868ef9f2ad23336df49386eb98fe8259951830bdf7c3dbfd,"[170, 33, 87, 223, 61, 66, 125, 108, 2, 36, 135, 18, 29, 75, 206, 224, 227, 1, 137, 46, 46, 220, 243, 205, 41, 165, 168, 159, 183, 224, 152, 208]",True,"[{""page_index"":0,""viewing_time"":5317},{""page_index"":1,""viewing_time"":14242},{""page_index"":2,""viewing_time"":3803},{""page_index"":3,""viewing_time"":3521}]",26883.0,,,,,,,,,,,,,
,p5vs_yn,2,33931,0.0-2.0-1.0-0.0,f078aa2862041786868ef9f2ad23336df49386eb98fe8259951830bdf7c3dbfd,"[170, 33, 87, 223, 61, 66, 125, 108, 2, 36, 135, 18, 29, 75, 206, 224, 227, 1, 137, 46, 46, 220, 243, 205, 41, 165, 168, 159, 183, 224, 152, 208]",True,,,3.0,1.0,847.5981678925455,f,"[-0.30000000000000004, -0.099999999999999]","[[-0.099999999999999, 0.099999999999999], [0.30000000000000004, -0.099999999999999]]",565.4018321074545,j,practice,0.0,,,
,html-keyboard-response,3,35441,0.0-2.0-1.0-1.0,f078aa2862041786868ef9f2ad23336df49386eb98fe8259951830bdf7c3dbfd,"[170, 33, 87, 223, 61, 66, 125, 108, 2, 36, 135, 18, 29, 75, 206, 224, 227, 1, 137, 46, 46, 220, 243, 205, 41, 165, 168, 159, 183, 224, 152, 208]",True,,,,,,,,,,,,,"<div style=""width:150px;height:56px;border:0px;font-size:30px;text-align:center"">wrong.</div>",,
,p5vs_yn,4,37445,0.0-2.0-1.0-0.1,f078aa2862041786868ef9f2ad23336df49386eb98fe8259951830bdf7c3dbfd,"[170, 33, 87, 223, 61, 66, 125, 108, 2, 36, 135, 18, 29, 75, 206, 224, 227, 1, 137, 46, 46, 220, 243, 205, 41, 165, 168, 159, 183, 224, 152, 208]",True,,,3.0,0.0,699.5549711659551,f,"[-0.099999999999999, 0.099999999999999]","[[0.099999999999999, -0.30000000000000004], [-0.30000000000000004, 0.099999999999999]]",97.44502883404493,f,practice,1.0,,,
,html-keyboard-response,5,38461,0.0-2.0-1.0-1.1,f078aa2862041786868ef9f2ad23336df49386eb98fe8259951830bdf7c3dbfd,"[170, 33, 87, 223, 61, 66, 125, 108, 2, 36, 135, 18, 29, 75, 206, 224, 227, 1, 137, 46, 46, 220, 243, 205, 41, 165, 168, 159, 183, 224, 152, 208]",True,,,,,,,,,,,,,"<div style=""width:150px;height:56px;font-size:30px;text-align:center;"">correct!</div>",,
,p5vs_yn,6,40862,0.0-2.0-1.0-0.2,f078aa2862041786868ef9f2ad23336df49386eb98fe8259951830bdf7c3dbfd,"[170, 33, 87, 223, 61, 66, 125, 108, 2, 36, 135, 18, 29, 75, 206, 224, 227, 1, 137, 46, 46, 220, 243, 205, 41, 165, 168, 159, 183, 224, 152, 208]",True,,,3.0,0.0,595.8345212098211,f,"[0.30000000000000004, 0.099999999999999]","[[0.30000000000000004, -0.30000000000000004], [0.099999999999999, -0.099999999999999]]",598.1654787901789,f,practice,1.0,,,
,html-keyboard-response,7,41871,0.0-2.0-1.0-1.2,f078aa2862041786868ef9f2ad23336df49386eb98fe8259951830bdf7c3dbfd,"[170, 33, 87, 223, 61, 66, 125, 108, 2, 36, 135, 18, 29, 75, 206, 224, 227, 1, 137, 46, 46, 220, 243, 205, 41, 165, 168, 159, 183, 224, 152, 208]",True,,,,,,,,,,,,,"<div style=""width:150px;height:56px;font-size:30px;text-align:center;"">correct!</div>",,
,p5vs_yn,8,43877,0.0-2.0-1.0-0.3,f078aa2862041786868ef9f2ad23336df49386eb98fe8259951830bdf7c3dbfd,"[170, 33, 87, 223, 61, 66, 125, 108, 2, 36, 135, 18, 29, 75, 206, 224, 227, 1, 137, 46, 46, 220, 243, 205, 41, 165, 168, 159, 183, 224, 152, 208]",True,,,3.0,1.0,440.93047283031046,j,"[-0.099999999999999, -0.30000000000000004]","[[0.30000000000000004, 0.30000000000000004], [-0.30000000000000004, -0.30000000000000004]]",355.06952716968954,j,practice,1.0,,,
,html-keyboard-response,9,44881,0.0-2.0-1.0-1.3,f078aa2862041786868ef9f2ad23336df49386eb98fe8259951830bdf7c3dbfd,"[170, 33, 87, 223, 61, 66, 125, 108, 2, 36, 135, 18, 29, 75, 206, 224, 227, 1, 137, 46, 46, 220, 243, 205, 41, 165, 168, 159, 183, 224, 152, 208]",True,,,,,,,,,,,,,"<div style=""width:150px;height:56px;font-size:30px;text-align:center;"">correct!</div>",,
,p5vs_yn,10,47360,0.0-2.0-1.0-0.4,f078aa2862041786868ef9f2ad23336df49386eb98fe8259951830bdf7c3dbfd,"[170, 33, 87, 223, 61, 66, 125, 108, 2, 36, 135, 18, 29, 75, 206, 224, 227, 1, 137, 46, 46, 220, 243, 205, 41, 165, 168, 159, 183, 224, 152, 208]",True,,,3.0,1.0,548.5125008039176,j,"[-0.099999999999999, -0.30000000000000004]","[[-0.099999999999999, -0.099999999999999], [0.099999999999999, 0.30000000000000004]]",726.4874991960824,j,practice,1.0,,,
,html-keyboard-response,11,48381,0.0-2.0-1.0-1.4,f078aa2862041786868ef9f2ad23336df49386eb98fe8259951830bdf7c3dbfd,"[170, 33, 87, 223, 61, 66, 125, 108, 2, 36, 135, 18, 29, 75, 206, 224, 227, 1, 137, 46, 46, 220, 243, 205, 41, 165, 168, 159, 183, 224, 152, 208]",True,,,,,,,,,,,,,"<div style=""width:150px;height:56px;font-size:30px;text-align:center;"">correct!</div>",,
,p5vs_yn,12,50743,0.0-2.0-1.0-0.5,f078aa2862041786868ef9f2ad23336df49386eb98fe8259951830bdf7c3dbfd,"[170, 33, 87, 223, 61, 66, 125, 108, 2, 36, 135, 18, 29, 75, 206, 224, 227, 1, 137, 46, 46, 220, 243, 205, 41, 165, 168, 159, 183, 224, 152, 208]",True,,,3.0,0.0,461.45250906795263,f,"[-0.099999999999999, 0.099999999999999]","[[0.099999999999999, -0.30000000000000004], [0.30000000000000004, 0.099999999999999]]",687.5474909320474,f,practice,1.0,,,
,html-keyboard-response,13,51761,0.0-2.0-1.0-1.5,f078aa2862041786868ef9f2ad23336df49386eb98fe8259951830bdf7c3dbfd,"[170, 33, 87, 223, 61, 66, 125, 108, 2, 36, 135, 18, 29, 75, 206, 224, 227, 1, 137, 46, 46, 220, 243, 205, 41, 165, 168, 159, 183, 224, 152, 208]",True,,,,,,,,,,,,,"<div style=""width:150px;height:56px;font-size:30px;text-align:center;"">correct!</div>",,
,instructions,14,68511,0.0-3.0,f078aa2862041786868ef9f2ad23336df49386eb98fe8259951830bdf7c3dbfd,"[170, 33, 87, 223, 61, 66, 125, 108, 2, 36, 135, 18, 29, 75, 206, 224, 227, 1, 137, 46, 46, 220, 243, 205, 41, 165, 168, 159, 183, 224, 152, 208]",True,"[{""page_index"":0,""viewing_time"":14067},{""page_index"":1,""viewing_time"":2682}]",16749.0,,,,,,,,,,,,,
,p5vs_yn,15,71339,0.0-4.0-0.0,f078aa2862041786868ef9f2ad23336df49386eb98fe8259951830bdf7c3dbfd,"[170, 33, 87, 223, 61, 66, 125, 108, 2, 36, 135, 18, 29, 75, 206, 224, 227, 1, 137, 46, 46, 220, 243, 205, 41, 165, 168, 159, 183, 224, 152, 208]",True,,,8.0,0.0,696.5931222550571,f,"[0.16666666666666602, 0.33333333333333304]","[[0.33333333333333304, 0.16666666666666602], [0, -0.33333333333333304], [0.33333333333333304, -0.33333333333333304], [-0.33333333333333304, -0.33333333333333304], [0.16666666666666602, 0], [0, -0.16666666666666602], [0.33333333333333304, 0]]",927.4068777449429,f,absence1,1.0,,,
,html-keyboard-response,16,72341,0.0-4.0-1.0,f078aa2862041786868ef9f2ad23336df49386eb98fe8259951830bdf7c3dbfd,"[170, 33, 87, 223, 61, 66, 125, 108, 2, 36, 135, 18, 29, 75, 206, 224, 227, 1, 137, 46, 46, 220, 243, 205, 41, 165, 168, 159, 183, 224, 152, 208]",True,,,,,,,,,,,,,"<div style=""width:150px;height:56px;font-size:30px;text-align:center;"">correct!</div>",,
,p5vs_yn,17,74139,0.0-4.0-0.1,f078aa2862041786868ef9f2ad23336df49386eb98fe8259951830bdf7c3dbfd,"[170, 33, 87, 223, 61, 66, 125, 108, 2, 36, 135, 18, 29, 75, 206, 224, 227, 1, 137, 46, 46, 220, 243, 205, 41, 165, 168, 159, 183, 224, 152, 208]",True,,,8.0,0.0,488.94887898117304,f,"[-0.16666666666666602, 0.33333333333333304]","[[0, 0.16666666666666602], [0.16666666666666602, -0.33333333333333304], [0, -0.16666666666666602], [0.33333333333333304, -0.33333333333333304], [0.16666666666666602, 0.16666666666666602], [-0.16666666666666602, -0.33333333333333304], [-0.33333333333333304, 0.16666666666666602]]",101.05112101882696,f,absence1,1.0,,,
,html-keyboard-response,18,75161,0.0-4.0-1.1,f078aa2862041786868ef9f2ad23336df49386eb98fe8259951830bdf7c3dbfd,"[170, 33, 87, 223, 61, 66, 125, 108, 2, 36, 135, 18, 29, 75, 206, 224, 227, 1, 137, 46, 46, 220, 243, 205, 41, 165, 168, 159, 183, 224, 152, 208]",True,,,,,,,,,,,,,"<div style=""width:150px;height:56px;font-size:30px;text-align:center;"">correct!</div>",,
,p5vs_yn,19,77588,0.0-4.0-0.2,f078aa2862041786868ef9f2ad23336df49386eb98fe8259951830bdf7c3dbfd,"[170, 33, 87, 223, 61, 66, 125, 108, 2, 36, 135, 18, 29, 75, 206, 224, 227, 1, 137, 46, 46, 220, 243, 205, 41, 165, 168, 159, 183, 224, 152, 208]",True,,,4.0,0.0,388.23522504232824,f,"[0, 0.16666666666666602]","[[0.33333333333333304, 0.16666666666666602], [-0.16666666666666602, 0], [-0.33333333333333304, -0.16666666666666602]]",833.7647749576718,f,absence1,1.0,,,
,html-keyboard-response,20,79020,0.0-4.0-1.2,f078aa2862041786868ef9f2ad23336df49386eb98fe8259951830bdf7c3dbfd,"[170, 33, 87, 223, 61, 66, 125, 108, 2, 36, 135, 18, 29, 75, 206, 224, 227, 1, 137, 46, 46, 220, 243, 205, 41, 165, 168, 159, 183, 224, 152, 208]",True,,,,,,,,,,,,,"<div style=""width:150px;height:56px;font-size:30px;text-align:center;"">correct!</div>",,
,p5vs_yn,21,81305,0.0-4.0-0.3,f078aa2862041786868ef9f2ad23336df49386eb98fe8259951830bdf7c3dbfd,"[170, 33, 87, 223, 61, 66, 125, 108, 2, 36, 135, 18, 29, 75, 206, 224, 227, 1, 137, 46, 46, 220, 243, 205, 41, 165, 168, 159, 183, 224, 152, 208]",True,,,4.0,0.0,510.0826123431325,f,"[-0.16666666666666602, 0]","[[-0.33333333333333304, -0.33333333333333304], [0.16666666666666602, -0.16666666666666602], [-0.33333333333333304, 0.33333333333333304]]",571.9173876568675,f,absence1,1.0,,,
,html-keyboard-response,22,82310,0.0-4.0-1.3,f078aa2862041786868ef9f2ad23336df49386eb98fe8259951830bdf7c3dbfd,"[170, 33, 87, 223, 61, 66, 125, 108, 2, 36, 135, 18, 29, 75, 206, 224, 227, 1, 137, 46, 46, 220, 243, 205, 41, 165, 168, 159, 183, 224, 152, 208]",True,,,,,,,,,,,,,"<div style=""width:150px;height:56px;font-size:30px;text-align:center;"">correct!</div>",,
,p5vs_yn,23,84071,0.0-5.0-0.0,f078aa2862041786868ef9f2ad23336df49386eb98fe8259951830bdf7c3dbfd,"[170, 33, 87, 223, 61, 66, 125, 108, 2, 36, 135, 18, 29, 75, 206, 224, 227, 1, 137, 46, 46, 220, 243, 205, 41, 165, 168, 159, 183, 224, 152, 208]",True,,,4.0,1.0,541.0481036640704,j,"[-0.16666666666666602, 0.33333333333333304]","[[0.16666666666666602, -0.16666666666666602], [0.16666666666666602, -0.33333333333333304], [0.33333333333333304, 0.33333333333333304]]",8.951896335929632,j,absence1,1.0,,,
,html-keyboard-response,24,85091,0.0-5.0-1.0,f078aa2862041786868ef9f2ad23336df49386eb98fe8259951830bdf7c3dbfd,"[170, 33, 87, 223, 61, 66, 125, 108, 2, 36, 135, 18, 29, 75, 206, 224, 227, 1, 137, 46, 46, 220, 243, 205, 41, 165, 168, 159, 183, 224, 152, 208]",True,,,,,,,,,,,,,"<div style=""width:150px;height:56px;font-size:30px;text-align:center;"">correct!</div>",,
,p5vs_yn,25,87720,0.0-5.0-0.1,f078aa2862041786868ef9f2ad23336df49386eb98fe8259951830bdf7c3dbfd,"[170, 33, 87, 223, 61, 66, 125, 108, 2, 36, 135, 18, 29, 75, 206, 224, 227, 1, 137, 46, 46, 220, 243, 205, 41, 165, 168, 159, 183, 224, 152, 208]",True,,,4.0,1.0,532.7686568070203,j,"[0, -0.16666666666666602]","[[0.16666666666666602, -0.33333333333333304], [0.33333333333333304, -0.33333333333333304], [-0.16666666666666602, 0]]",887.2313431929797,j,absence1,1.0,,,
,html-keyboard-response,26,88740,0.0-5.0-1.1,f078aa2862041786868ef9f2ad23336df49386eb98fe8259951830bdf7c3dbfd,"[170, 33, 87, 223, 61, 66, 125, 108, 2, 36, 135, 18, 29, 75, 206, 224, 227, 1, 137, 46, 46, 220, 243, 205, 41, 165, 168, 159, 183, 224, 152, 208]",True,,,,,,,,,,,,,"<div style=""width:150px;height:56px;font-size:30px;text-align:center;"">correct!</div>",,
,p5vs_yn,27,90536,0.0-5.0-0.2,f078aa2862041786868ef9f2ad23336df49386eb98fe8259951830bdf7c3dbfd,"[170, 33, 87, 223, 61, 66, 125, 108, 2, 36, 135, 18, 29, 75, 206, 224, 227, 1, 137, 46, 46, 220, 243, 205, 41, 165, 168, 159, 183, 224, 152, 208]",True,,,8.0,1.0,466.47958323173225,j,"[0.33333333333333304, 0.16666666666666602]","[[-0.33333333333333304, 0.33333333333333304], [0, -0.16666666666666602], [-0.33333333333333304, 0.16666666666666602], [-0.16666666666666602, -0.33333333333333304], [0, 0], [0, -0.33333333333333304], [-0.16666666666666602, -0.16666666666666602]]",125.52041676826775,j,absence1,1.0,,,
,html-keyboard-response,28,91540,0.0-5.0-1.2,f078aa2862041786868ef9f2ad23336df49386eb98fe8259951830bdf7c3dbfd,"[170, 33, 87, 223, 61, 66, 125, 108, 2, 36, 135, 18, 29, 75, 206, 224, 227, 1, 137, 46, 46, 220, 243, 205, 41, 165, 168, 159, 183, 224, 152, 208]",True,,,,,,,,,,,,,"<div style=""width:150px;height:56px;font-size:30px;text-align:center;"">correct!</div>",,
,p5vs_yn,29,94018,0.0-5.0-0.3,f078aa2862041786868ef9f2ad23336df49386eb98fe8259951830bdf7c3dbfd,"[170, 33, 87, 223, 61, 66, 125, 108, 2, 36, 135, 18, 29, 75, 206, 224, 227, 1, 137, 46, 46, 220, 243, 205, 41, 165, 168, 159, 183, 224, 152, 208]",True,,,8.0,1.0,493.9971356894821,j,"[-0.16666666666666602, -0.33333333333333304]","[[0, -0.33333333333333304], [0.33333333333333304, -0.33333333333333304], [0, -0.16666666666666602], [-0.33333333333333304, -0.33333333333333304], [0.33333333333333304, 0.33333333333333304], [0.16666666666666602, -0.16666666666666602], [0.16666666666666602, -0.33333333333333304]]",780.0028643105179,j,absence1,1.0,,,
,html-keyboard-response,30,95020,0.0-5.0-1.3,f078aa2862041786868ef9f2ad23336df49386eb98fe8259951830bdf7c3dbfd,"[170, 33, 87, 223, 61, 66, 125, 108, 2, 36, 135, 18, 29, 75, 206, 224, 227, 1, 137, 46, 46, 220, 243, 205, 41, 165, 168, 159, 183, 224, 152, 208]",True,,,,,,,,,,,,,"<div style=""width:150px;height:56px;font-size:30px;text-align:center;"">correct!</div>",,
,p5vs_yn,31,97353,0.0-6.0-0.0,f078aa2862041786868ef9f2ad23336df49386eb98fe8259951830bdf7c3dbfd,"[170, 33, 87, 223, 61, 66, 125, 108, 2, 36, 135, 18, 29, 75, 206, 224, 227, 1, 137, 46, 46, 220, 243, 205, 41, 165, 168, 159, 183, 224, 152, 208]",True,,,8.0,0.0,575.0270668175071,f,"[-0.16666666666666602, 0.33333333333333304]","[[-0.33333333333333304, 0], [0.33333333333333304, -0.33333333333333304], [0.16666666666666602, -0.16666666666666602], [0.16666666666666602, 0], [-0.16666666666666602, 0.16666666666666602], [0.33333333333333304, 0.33333333333333304], [-0.16666666666666602, -0.16666666666666602]]",550.9729331824929,f,absence1,1.0,,,
,html-keyboard-response,32,98371,0.0-6.0-1.0,f078aa2862041786868ef9f2ad23336df49386eb98fe8259951830bdf7c3dbfd,"[170, 33, 87, 223, 61, 66, 125, 108, 2, 36, 135, 18, 29, 75, 206, 224, 227, 1, 137, 46, 46, 220, 243, 205, 41, 165, 168, 159, 183, 224, 152, 208]",True,,,,,,,,,,,,,"<div style=""width:150px;height:56px;font-size:30px;text-align:center;"">correct!</div>",,
,p5vs_yn,33,100118,0.0-6.0-0.1,f078aa2862041786868ef9f2ad23336df49386eb98fe8259951830bdf7c3dbfd,"[170, 33, 87, 223, 61, 66, 125, 108, 2, 36, 135, 18, 29, 75, 206, 224, 227, 1, 137, 46, 46, 220, 243, 205, 41, 165, 168, 159, 183, 224, 152, 208]",True,,,4.0,0.0,409.120977723971,f,"[-0.16666666666666602, 0.33333333333333304]","[[0.33333333333333304, -0.16666666666666602], [0.33333333333333304, -0.33333333333333304], [-0.33333333333333304, 0.33333333333333304]]",132.879022276029,f,absence1,1.0,,,
,html-keyboard-response,34,101121,0.0-6.0-1.1,f078aa2862041786868ef9f2ad23336df49386eb98fe8259951830bdf7c3dbfd,"[170, 33, 87, 223, 61, 66, 125, 108, 2, 36, 135, 18, 29, 75, 206, 224, 227, 1, 137, 46, 46, 220, 243, 205, 41, 165, 168, 159, 183, 224, 152, 208]",True,,,,,,,,,,,,,"<div style=""width:150px;height:56px;font-size:30px;text-align:center;"">correct!</div>",,
,p5vs_yn,35,103283,0.0-6.0-0.2,f078aa2862041786868ef9f2ad23336df49386eb98fe8259951830bdf7c3dbfd,"[170, 33, 87, 223, 61, 66, 125, 108, 2, 36, 135, 18, 29, 75, 206, 224, 227, 1, 137, 46, 46, 220, 243, 205, 41, 165, 168, 159, 183, 224, 152, 208]",True,,,8.0,0.0,588.7817337326705,f,"[-0.33333333333333304, 0]","[[0.33333333333333304, 0], [0.33333333333333304, 0.16666666666666602], [-0.16666666666666602, 0], [0.16666666666666602, -0.33333333333333304], [0.16666666666666602, 0.16666666666666602], [0, 0.16666666666666602], [0, -0.33333333333333304]]",370.21826626732945,f,absence1,1.0,,,
,html-keyboard-response,36,104290,0.0-6.0-1.2,f078aa2862041786868ef9f2ad23336df49386eb98fe8259951830bdf7c3dbfd,"[170, 33, 87, 223, 61, 66, 125, 108, 2, 36, 135, 18, 29, 75, 206, 224, 227, 1, 137, 46, 46, 220, 243, 205, 41, 165, 168, 159, 183, 224, 152, 208]",True,,,,,,,,,,,,,"<div style=""width:150px;height:56px;font-size:30px;text-align:center;"">correct!</div>",,
,p5vs_yn,37,106833,0.0-6.0-0.3,f078aa2862041786868ef9f2ad23336df49386eb98fe8259951830bdf7c3dbfd,"[170, 33, 87, 223, 61, 66, 125, 108, 2, 36, 135, 18, 29, 75, 206, 224, 227, 1, 137, 46, 46, 220, 243, 205, 41, 165, 168, 159, 183, 224, 152, 208]",True,,,4.0,0.0,428.5592739582062,f,"[0, -0.16666666666666602]","[[-0.33333333333333304, 0.33333333333333304], [-0.33333333333333304, -0.16666666666666602], [0, 0]]",909.4407260417938,f,absence1,1.0,,,
,html-keyboard-response,38,107851,0.0-6.0-1.3,f078aa2862041786868ef9f2ad23336df49386eb98fe8259951830bdf7c3dbfd,"[170, 33, 87, 223, 61, 66, 125, 108, 2, 36, 135, 18, 29, 75, 206, 224, 227, 1, 137, 46, 46, 220, 243, 205, 41, 165, 168, 159, 183, 224, 152, 208]",True,,,,,,,,,,,,,"<div style=""width:150px;height:56px;font-size:30px;text-align:center;"">correct!</div>",,
,survey-text,39,114764,0.0-7.0,f078aa2862041786868ef9f2ad23336df49386eb98fe8259951830bdf7c3dbfd,"[170, 33, 87, 223, 61, 66, 125, 108, 2, 36, 135, 18, 29, 75, 206, 224, 227, 1, 137, 46, 46, 220, 243, 205, 41, 165, 168, 159, 183, 224, 152, 208]",True,,6911.0,,,,,,,,,,,,,"{""worker_comments"":""""}"
,p5Text,40,118512,0.0-8.0,f078aa2862041786868ef9f2ad23336df49386eb98fe8259951830bdf7c3dbfd,"[170, 33, 87, 223, 61, 66, 125, 108, 2, 36, 135, 18, 29, 75, 206, 224, 227, 1, 137, 46, 46, 220, 243, 205, 41, 165, 168, 159, 183, 224, 152, 208]",True,,,,,,,,,,,,,,,
1.0,fullscreen,0,2905,0.0-0.0,f078aa2862041786868ef9f2ad23336df49386eb98fe8259951830bdf7c3dbfd,"[170, 33, 87, 223, 61, 66, 125, 108, 2, 36, 135, 18, 29, 75, 206, 224, 227, 1, 137, 46, 46, 220, 243, 205, 41, 165, 168, 159, 183, 224, 152, 208]",True,,,,,,,,,,,,,,,
,instructions,1,31570,0.0-1.0,f078aa2862041786868ef9f2ad23336df49386eb98fe8259951830bdf7c3dbfd,"[170, 33, 87, 223, 61, 66, 125, 108, 2, 36, 135, 18, 29, 75, 206, 224, 227, 1, 137, 46, 46, 220, 243, 205, 41, 165, 168, 159, 183, 224, 152, 208]",True,"[{""page_index"":0,""viewing_time"":2247},{""page_index"":1,""viewing_time"":7089},{""page_index"":2,""viewing_time"":17405.000000000004},{""page_index"":3,""viewing_time"":1922}]",28663.000000000004,,,,,,,,,,,,,
,p5vs_yn,2,38368,0.0-2.0-1.0-0.0,f078aa2862041786868ef9f2ad23336df49386eb98fe8259951830bdf7c3dbfd,"[170, 33, 87, 223, 61, 66, 125, 108, 2, 36, 135, 18, 29, 75, 206, 224, 227, 1, 137, 46, 46, 220, 243, 205, 41, 165, 168, 159, 183, 224, 152, 208]",True,,,3.0,1.0,5015.5981678925455,j,"[-0.30000000000000004, -0.099999999999999]","[[-0.099999999999999, 0.099999999999999], [0.30000000000000004, -0.099999999999999]]",565.4018321074545,j,practice,1.0,,,
,html-keyboard-response,3,39371,0.0-2.0-1.0-1.0,f078aa2862041786868ef9f2ad23336df49386eb98fe8259951830bdf7c3dbfd,"[170, 33, 87, 223, 61, 66, 125, 108, 2, 36, 135, 18, 29, 75, 206, 224, 227, 1, 137, 46, 46, 220, 243, 205, 41, 165, 168, 159, 183, 224, 152, 208]",True,,,,,,,,,,,,,"<div style=""width:150px;height:56px;font-size:30px;text-align:center;"">correct!</div>",,
,p5vs_yn,4,42790,0.0-2.0-1.0-0.1,f078aa2862041786868ef9f2ad23336df49386eb98fe8259951830bdf7c3dbfd,"[170, 33, 87, 223, 61, 66, 125, 108, 2, 36, 135, 18, 29, 75, 206, 224, 227, 1, 137, 46, 46, 220, 243, 205, 41, 165, 168, 159, 183, 224, 152, 208]",True,,,3.0,0.0,2107.554971165955,f,"[-0.099999999999999, 0.099999999999999]","[[0.099999999999999, -0.30000000000000004], [-0.30000000000000004, 0.099999999999999]]",97.44502883404493,f,practice,1.0,,,
,html-keyboard-response,5,43798,0.0-2.0-1.0-1.1,f078aa2862041786868ef9f2ad23336df49386eb98fe8259951830bdf7c3dbfd,"[170, 33, 87, 223, 61, 66, 125, 108, 2, 36, 135, 18, 29, 75, 206, 224, 227, 1, 137, 46, 46, 220, 243, 205, 41, 165, 168, 159, 183, 224, 152, 208]",True,,,,,,,,,,,,,"<div style=""width:150px;height:56px;font-size:30px;text-align:center;"">correct!</div>",,
,p5vs_yn,6,46374,0.0-2.0-1.0-0.2,f078aa2862041786868ef9f2ad23336df49386eb98fe8259951830bdf7c3dbfd,"[170, 33, 87, 223, 61, 66, 125, 108, 2, 36, 135, 18, 29, 75, 206, 224, 227, 1, 137, 46, 46, 220, 243, 205, 41, 165, 168, 159, 183, 224, 152, 208]",True,,,3.0,0.0,767.8345212098211,f,"[0.30000000000000004, 0.099999999999999]","[[0.30000000000000004, -0.30000000000000004], [0.099999999999999, -0.099999999999999]]",598.1654787901789,f,practice,1.0,,,
,html-keyboard-response,7,47376,0.0-2.0-1.0-1.2,f078aa2862041786868ef9f2ad23336df49386eb98fe8259951830bdf7c3dbfd,"[170, 33, 87, 223, 61, 66, 125, 108, 2, 36, 135, 18, 29, 75, 206, 224, 227, 1, 137, 46, 46, 220, 243, 205, 41, 165, 168, 159, 183, 224, 152, 208]",True,,,,,,,,,,,,,"<div style=""width:150px;height:56px;font-size:30px;text-align:center;"">correct!</div>",,
,p5vs_yn,8,50014,0.0-2.0-1.0-0.3,f078aa2862041786868ef9f2ad23336df49386eb98fe8259951830bdf7c3dbfd,"[170, 33, 87, 223, 61, 66, 125, 108, 2, 36, 135, 18, 29, 75, 206, 224, 227, 1, 137, 46, 46, 220, 243, 205, 41, 165, 168, 159, 183, 224, 152, 208]",True,,,3.0,1.0,1067.9304728303105,j,"[-0.099999999999999, -0.30000000000000004]","[[0.30000000000000004, 0.30000000000000004], [-0.30000000000000004, -0.30000000000000004]]",355.06952716968954,j,practice,1.0,,,
,html-keyboard-response,9,51018,0.0-2.0-1.0-1.3,f078aa2862041786868ef9f2ad23336df49386eb98fe8259951830bdf7c3dbfd,"[170, 33, 87, 223, 61, 66, 125, 108, 2, 36, 135, 18, 29, 75, 206, 224, 227, 1, 137, 46, 46, 220, 243, 205, 41, 165, 168, 159, 183, 224, 152, 208]",True,,,,,,,,,,,,,"<div style=""width:150px;height:56px;font-size:30px;text-align:center;"">correct!</div>",,
,p5vs_yn,10,53767,0.0-2.0-1.0-0.4,f078aa2862041786868ef9f2ad23336df49386eb98fe8259951830bdf7c3dbfd,"[170, 33, 87, 223, 61, 66, 125, 108, 2, 36, 135, 18, 29, 75, 206, 224, 227, 1, 137, 46, 46, 220, 243, 205, 41, 165, 168, 159, 183, 224, 152, 208]",True,,,3.0,1.0,813.5125008039176,j,"[-0.099999999999999, -0.30000000000000004]","[[-0.099999999999999, -0.099999999999999], [0.099999999999999, 0.30000000000000004]]",726.4874991960824,j,practice,1.0,,,
,html-keyboard-response,11,54771,0.0-2.0-1.0-1.4,f078aa2862041786868ef9f2ad23336df49386eb98fe8259951830bdf7c3dbfd,"[170, 33, 87, 223, 61, 66, 125, 108, 2, 36, 135, 18, 29, 75, 206, 224, 227, 1, 137, 46, 46, 220, 243, 205, 41, 165, 168, 159, 183, 224, 152, 208]",True,,,,,,,,,,,,,"<div style=""width:150px;height:56px;font-size:30px;text-align:center;"">correct!</div>",,
,p5vs_yn,12,57434,0.0-2.0-1.0-0.5,f078aa2862041786868ef9f2ad23336df49386eb98fe8259951830bdf7c3dbfd,"[170, 33, 87, 223, 61, 66, 125, 108, 2, 36, 135, 18, 29, 75, 206, 224, 227, 1, 137, 46, 46, 220, 243, 205, 41, 165, 168, 159, 183, 224, 152, 208]",True,,,3.0,0.0,763.4525090679526,f,"[-0.099999999999999, 0.099999999999999]","[[0.099999999999999, -0.30000000000000004], [0.30000000000000004, 0.099999999999999]]",687.5474909320474,f,practice,1.0,,,
,html-keyboard-response,13,58438,0.0-2.0-1.0-1.5,f078aa2862041786868ef9f2ad23336df49386eb98fe8259951830bdf7c3dbfd,"[170, 33, 87, 223, 61, 66, 125, 108, 2, 36, 135, 18, 29, 75, 206, 224, 227, 1, 137, 46, 46, 220, 243, 205, 41, 165, 168, 159, 183, 224, 152, 208]",True,,,,,,,,,,,,,"<div style=""width:150px;height:56px;font-size:30px;text-align:center;"">correct!</div>",,
,instructions,14,70069,0.0-3.0,f078aa2862041786868ef9f2ad23336df49386eb98fe8259951830bdf7c3dbfd,"[170, 33, 87, 223, 61, 66, 125, 108, 2, 36, 135, 18, 29, 75, 206, 224, 227, 1, 137, 46, 46, 220, 243, 205, 41, 165, 168, 159, 183, 224, 152, 208]",True,"[{""page_index"":0,""viewing_time"":8645},{""page_index"":1,""viewing_time"":2983}]",11628.0,,,,,,,,,,,,,
,p5vs_yn,15,73173,0.0-4.0-0.0,f078aa2862041786868ef9f2ad23336df49386eb98fe8259951830bdf7c3dbfd,"[170, 33, 87, 223, 61, 66, 125, 108, 2, 36, 135, 18, 29, 75, 206, 224, 227, 1, 137, 46, 46, 220, 243, 205, 41, 165, 168, 159, 183, 224, 152, 208]",True,,,8.0,0.0,971.5931222550571,f,"[0.16666666666666602, 0.33333333333333304]","[[0.33333333333333304, 0.16666666666666602], [0, -0.33333333333333304], [0.33333333333333304, -0.33333333333333304], [-0.33333333333333304, -0.33333333333333304], [0.16666666666666602, 0], [0, -0.16666666666666602], [0.33333333333333304, 0]]",927.4068777449429,f,absence1,1.0,,,
,html-keyboard-response,16,74175,0.0-4.0-1.0,f078aa2862041786868ef9f2ad23336df49386eb98fe8259951830bdf7c3dbfd,"[170, 33, 87, 223, 61, 66, 125, 108, 2, 36, 135, 18, 29, 75, 206, 224, 227, 1, 137, 46, 46, 220, 243, 205, 41, 165, 168, 159, 183, 224, 152, 208]",True,,,,,,,,,,,,,"<div style=""width:150px;height:56px;font-size:30px;text-align:center;"">correct!</div>",,
,p5vs_yn,17,76157,0.0-4.0-0.1,f078aa2862041786868ef9f2ad23336df49386eb98fe8259951830bdf7c3dbfd,"[170, 33, 87, 223, 61, 66, 125, 108, 2, 36, 135, 18, 29, 75, 206, 224, 227, 1, 137, 46, 46, 220, 243, 205, 41, 165, 168, 159, 183, 224, 152, 208]",True,,,8.0,0.0,665.9488789811876,f,"[-0.16666666666666602, 0.33333333333333304]","[[0, 0.16666666666666602], [0.16666666666666602, -0.33333333333333304], [0, -0.16666666666666602], [0.33333333333333304, -0.33333333333333304], [0.16666666666666602, 0.16666666666666602], [-0.16666666666666602, -0.33333333333333304], [-0.33333333333333304, 0.16666666666666602]]",101.05112101882696,f,absence1,1.0,,,
,html-keyboard-response,18,77159,0.0-4.0-1.1,f078aa2862041786868ef9f2ad23336df49386eb98fe8259951830bdf7c3dbfd,"[170, 33, 87, 223, 61, 66, 125, 108, 2, 36, 135, 18, 29, 75, 206, 224, 227, 1, 137, 46, 46, 220, 243, 205, 41, 165, 168, 159, 183, 224, 152, 208]",True,,,,,,,,,,,,,"<div style=""width:150px;height:56px;font-size:30px;text-align:center;"">correct!</div>",,
,p5vs_yn,19,79746,0.0-4.0-0.2,f078aa2862041786868ef9f2ad23336df49386eb98fe8259951830bdf7c3dbfd,"[170, 33, 87, 223, 61, 66, 125, 108, 2, 36, 135, 18, 29, 75, 206, 224, 227, 1, 137, 46, 46, 220, 243, 205, 41, 165, 168, 159, 183, 224, 152, 208]",True,,,4.0,0.0,542.2352250423282,f,"[0, 0.16666666666666602]","[[0.33333333333333304, 0.16666666666666602], [-0.16666666666666602, 0], [-0.33333333333333304, -0.16666666666666602]]",833.7647749576718,f,absence1,1.0,,,
,html-keyboard-response,20,80748,0.0-4.0-1.2,f078aa2862041786868ef9f2ad23336df49386eb98fe8259951830bdf7c3dbfd,"[170, 33, 87, 223, 61, 66, 125, 108, 2, 36, 135, 18, 29, 75, 206, 224, 227, 1, 137, 46, 46, 220, 243, 205, 41, 165, 168, 159, 183, 224, 152, 208]",True,,,,,,,,,,,,,"<div style=""width:150px;height:56px;font-size:30px;text-align:center;"">correct!</div>",,
,p5vs_yn,21,83187,0.0-4.0-0.3,f078aa2862041786868ef9f2ad23336df49386eb98fe8259951830bdf7c3dbfd,"[170, 33, 87, 223, 61, 66, 125, 108, 2, 36, 135, 18, 29, 75, 206, 224, 227, 1, 137, 46, 46, 220, 243, 205, 41, 165, 168, 159, 183, 224, 152, 208]",True,,,4.0,0.0,660.082612343118,f,"[-0.16666666666666602, 0]","[[-0.33333333333333304, -0.33333333333333304], [0.16666666666666602, -0.16666666666666602], [-0.33333333333333304, 0.33333333333333304]]",571.9173876568675,f,absence1,1.0,,,
,html-keyboard-response,22,84190,0.0-4.0-1.3,f078aa2862041786868ef9f2ad23336df49386eb98fe8259951830bdf7c3dbfd,"[170, 33, 87, 223, 61, 66, 125, 108, 2, 36, 135, 18, 29, 75, 206, 224, 227, 1, 137, 46, 46, 220, 243, 205, 41, 165, 168, 159, 183, 224, 152, 208]",True,,,,,,,,,,,,,"<div style=""width:150px;height:56px;font-size:30px;text-align:center;"">correct!</div>",,
,p5vs_yn,23,85954,0.0-5.0-0.0,f078aa2862041786868ef9f2ad23336df49386eb98fe8259951830bdf7c3dbfd,"[170, 33, 87, 223, 61, 66, 125, 108, 2, 36, 135, 18, 29, 75, 206, 224, 227, 1, 137, 46, 46, 220, 243, 205, 41, 165, 168, 159, 183, 224, 152, 208]",True,,,4.0,1.0,543.0481036640704,j,"[-0.16666666666666602, 0.33333333333333304]","[[0.16666666666666602, -0.16666666666666602], [0.16666666666666602, -0.33333333333333304], [0.33333333333333304, 0.33333333333333304]]",8.951896335929632,j,absence1,1.0,,,
,html-keyboard-response,24,86958,0.0-5.0-1.0,f078aa2862041786868ef9f2ad23336df49386eb98fe8259951830bdf7c3dbfd,"[170, 33, 87, 223, 61, 66, 125, 108, 2, 36, 135, 18, 29, 75, 206, 224, 227, 1, 137, 46, 46, 220, 243, 205, 41, 165, 168, 159, 183, 224, 152, 208]",True,,,,,,,,,,,,,"<div style=""width:150px;height:56px;font-size:30px;text-align:center;"">correct!</div>",,
,p5vs_yn,25,89695,0.0-5.0-0.1,f078aa2862041786868ef9f2ad23336df49386eb98fe8259951830bdf7c3dbfd,"[170, 33, 87, 223, 61, 66, 125, 108, 2, 36, 135, 18, 29, 75, 206, 224, 227, 1, 137, 46, 46, 220, 243, 205, 41, 165, 168, 159, 183, 224, 152, 208]",True,,,4.0,1.0,637.7686568070203,j,"[0, -0.16666666666666602]","[[0.16666666666666602, -0.33333333333333304], [0.33333333333333304, -0.33333333333333304], [-0.16666666666666602, 0]]",887.2313431929797,j,absence1,1.0,,,
,html-keyboard-response,26,90699,0.0-5.0-1.1,f078aa2862041786868ef9f2ad23336df49386eb98fe8259951830bdf7c3dbfd,"[170, 33, 87, 223, 61, 66, 125, 108, 2, 36, 135, 18, 29, 75, 206, 224, 227, 1, 137, 46, 46, 220, 243, 205, 41, 165, 168, 159, 183, 224, 152, 208]",True,,,,,,,,,,,,,"<div style=""width:150px;height:56px;font-size:30px;text-align:center;"">correct!</div>",,
,p5vs_yn,27,92567,0.0-5.0-0.2,f078aa2862041786868ef9f2ad23336df49386eb98fe8259951830bdf7c3dbfd,"[170, 33, 87, 223, 61, 66, 125, 108, 2, 36, 135, 18, 29, 75, 206, 224, 227, 1, 137, 46, 46, 220, 243, 205, 41, 165, 168, 159, 183, 224, 152, 208]",True,,,8.0,1.0,525.4795832317322,j,"[0.33333333333333304, 0.16666666666666602]","[[-0.33333333333333304, 0.33333333333333304], [0, -0.16666666666666602], [-0.33333333333333304, 0.16666666666666602], [-0.16666666666666602, -0.33333333333333304], [0, 0], [0, -0.33333333333333304], [-0.16666666666666602, -0.16666666666666602]]",125.52041676826775,j,absence1,1.0,,,
,html-keyboard-response,28,93572,0.0-5.0-1.2,f078aa2862041786868ef9f2ad23336df49386eb98fe8259951830bdf7c3dbfd,"[170, 33, 87, 223, 61, 66, 125, 108, 2, 36, 135, 18, 29, 75, 206, 224, 227, 1, 137, 46, 46, 220, 243, 205, 41, 165, 168, 159, 183, 224, 152, 208]",True,,,,,,,,,,,,,"<div style=""width:150px;height:56px;font-size:30px;text-align:center;"">correct!</div>",,
,p5vs_yn,29,96100,0.0-5.0-0.3,f078aa2862041786868ef9f2ad23336df49386eb98fe8259951830bdf7c3dbfd,"[170, 33, 87, 223, 61, 66, 125, 108, 2, 36, 135, 18, 29, 75, 206, 224, 227, 1, 137, 46, 46, 220, 243, 205, 41, 165, 168, 159, 183, 224, 152, 208]",True,,,8.0,1.0,537.9971356894821,j,"[-0.16666666666666602, -0.33333333333333304]","[[0, -0.33333333333333304], [0.33333333333333304, -0.33333333333333304], [0, -0.16666666666666602], [-0.33333333333333304, -0.33333333333333304], [0.33333333333333304, 0.33333333333333304], [0.16666666666666602, -0.16666666666666602], [0.16666666666666602, -0.33333333333333304]]",780.0028643105179,j,absence1,1.0,,,
,html-keyboard-response,30,97105,0.0-5.0-1.3,f078aa2862041786868ef9f2ad23336df49386eb98fe8259951830bdf7c3dbfd,"[170, 33, 87, 223, 61, 66, 125, 108, 2, 36, 135, 18, 29, 75, 206, 224, 227, 1, 137, 46, 46, 220, 243, 205, 41, 165, 168, 159, 183, 224, 152, 208]",True,,,,,,,,,,,,,"<div style=""width:150px;height:56px;font-size:30px;text-align:center;"">correct!</div>",,
,p5vs_yn,31,99491,0.0-6.0-0.0,f078aa2862041786868ef9f2ad23336df49386eb98fe8259951830bdf7c3dbfd,"[170, 33, 87, 223, 61, 66, 125, 108, 2, 36, 135, 18, 29, 75, 206, 224, 227, 1, 137, 46, 46, 220, 243, 205, 41, 165, 168, 159, 183, 224, 152, 208]",True,,,8.0,0.0,630.0270668175071,f,"[-0.16666666666666602, 0.33333333333333304]","[[-0.33333333333333304, 0], [0.33333333333333304, -0.33333333333333304], [0.16666666666666602, -0.16666666666666602], [0.16666666666666602, 0], [-0.16666666666666602, 0.16666666666666602], [0.33333333333333304, 0.33333333333333304], [-0.16666666666666602, -0.16666666666666602]]",550.9729331824929,f,absence1,1.0,,,
,html-keyboard-response,32,100493,0.0-6.0-1.0,f078aa2862041786868ef9f2ad23336df49386eb98fe8259951830bdf7c3dbfd,"[170, 33, 87, 223, 61, 66, 125, 108, 2, 36, 135, 18, 29, 75, 206, 224, 227, 1, 137, 46, 46, 220, 243, 205, 41, 165, 168, 159, 183, 224, 152, 208]",True,,,,,,,,,,,,,"<div style=""width:150px;height:56px;font-size:30px;text-align:center;"">correct!</div>",,
,p5vs_yn,33,102361,0.0-6.0-0.1,f078aa2862041786868ef9f2ad23336df49386eb98fe8259951830bdf7c3dbfd,"[170, 33, 87, 223, 61, 66, 125, 108, 2, 36, 135, 18, 29, 75, 206, 224, 227, 1, 137, 46, 46, 220, 243, 205, 41, 165, 168, 159, 183, 224, 152, 208]",True,,,4.0,0.0,520.120977723971,f,"[-0.16666666666666602, 0.33333333333333304]","[[0.33333333333333304, -0.16666666666666602], [0.33333333333333304, -0.33333333333333304], [-0.33333333333333304, 0.33333333333333304]]",132.879022276029,f,absence1,1.0,,,
,html-keyboard-response,34,103366,0.0-6.0-1.1,f078aa2862041786868ef9f2ad23336df49386eb98fe8259951830bdf7c3dbfd,"[170, 33, 87, 223, 61, 66, 125, 108, 2, 36, 135, 18, 29, 75, 206, 224, 227, 1, 137, 46, 46, 220, 243, 205, 41, 165, 168, 159, 183, 224, 152, 208]",True,,,,,,,,,,,,,"<div style=""width:150px;height:56px;font-size:30px;text-align:center;"">correct!</div>",,
,p5vs_yn,35,105528,0.0-6.0-0.2,f078aa2862041786868ef9f2ad23336df49386eb98fe8259951830bdf7c3dbfd,"[170, 33, 87, 223, 61, 66, 125, 108, 2, 36, 135, 18, 29, 75, 206, 224, 227, 1, 137, 46, 46, 220, 243, 205, 41, 165, 168, 159, 183, 224, 152, 208]",True,,,8.0,0.0,580.7817337326705,f,"[-0.33333333333333304, 0]","[[0.33333333333333304, 0], [0.33333333333333304, 0.16666666666666602], [-0.16666666666666602, 0], [0.16666666666666602, -0.33333333333333304], [0.16666666666666602, 0.16666666666666602], [0, 0.16666666666666602], [0, -0.33333333333333304]]",370.21826626732945,f,absence1,1.0,,,
,html-keyboard-response,36,106532,0.0-6.0-1.2,f078aa2862041786868ef9f2ad23336df49386eb98fe8259951830bdf7c3dbfd,"[170, 33, 87, 223, 61, 66, 125, 108, 2, 36, 135, 18, 29, 75, 206, 224, 227, 1, 137, 46, 46, 220, 243, 205, 41, 165, 168, 159, 183, 224, 152, 208]",True,,,,,,,,,,,,,"<div style=""width:150px;height:56px;font-size:30px;text-align:center;"">correct!</div>",,
,p5vs_yn,37,109201,0.0-6.0-0.3,f078aa2862041786868ef9f2ad23336df49386eb98fe8259951830bdf7c3dbfd,"[170, 33, 87, 223, 61, 66, 125, 108, 2, 36, 135, 18, 29, 75, 206, 224, 227, 1, 137, 46, 46, 220, 243, 205, 41, 165, 168, 159, 183, 224, 152, 208]",True,,,4.0,0.0,551.5592739581916,f,"[0, -0.16666666666666602]","[[-0.33333333333333304, 0.33333333333333304], [-0.33333333333333304, -0.16666666666666602], [0, 0]]",909.4407260417938,f,absence1,1.0,,,
,html-keyboard-response,38,110205,0.0-6.0-1.3,f078aa2862041786868ef9f2ad23336df49386eb98fe8259951830bdf7c3dbfd,"[170, 33, 87, 223, 61, 66, 125, 108, 2, 36, 135, 18, 29, 75, 206, 224, 227, 1, 137, 46, 46, 220, 243, 205, 41, 165, 168, 159, 183, 224, 152, 208]",True,,,,,,,,,,,,,"<div style=""width:150px;height:56px;font-size:30px;text-align:center;"">correct!</div>",,
,survey-text,39,113388,0.0-7.0,f078aa2862041786868ef9f2ad23336df49386eb98fe8259951830bdf7c3dbfd,"[170, 33, 87, 223, 61, 66, 125, 108, 2, 36, 135, 18, 29, 75, 206, 224, 227, 1, 137, 46, 46, 220, 243, 205, 41, 165, 168, 159, 183, 224, 152, 208]",True,,3178.0000000000146,,,,,,,,,,,,,"{""worker_comments"":""""}"
,p5Text,40,116238,0.0-8.0,f078aa2862041786868ef9f2ad23336df49386eb98fe8259951830bdf7c3dbfd,"[170, 33, 87, 223, 61, 66, 125, 108, 2, 36, 135, 18, 29, 75, 206, 224, 227, 1, 137, 46, 46, 220, 243, 205, 41, 165, 168, 159, 183, 224, 152, 208]",True,,,,,,,,,,,,,,,
1.0,fullscreen,0,4159,0.0-0.0,f078aa2862041786868ef9f2ad23336df49386eb98fe8259951830bdf7c3dbfd,"[170, 33, 87, 223, 61, 66, 125, 108, 2, 36, 135, 18, 29, 75, 206, 224, 227, 1, 137, 46, 46, 220, 243, 205, 41, 165, 168, 159, 183, 224, 152, 208]",True,,,,,,,,,,,,,,,
,instructions,1,62438,0.0-1.0,f078aa2862041786868ef9f2ad23336df49386eb98fe8259951830bdf7c3dbfd,"[170, 33, 87, 223, 61, 66, 125, 108, 2, 36, 135, 18, 29, 75, 206, 224, 227, 1, 137, 46, 46, 220, 243, 205, 41, 165, 168, 159, 183, 224, 152, 208]",True,"[{""page_index"":0,""viewing_time"":3563.594999955967},{""page_index"":1,""viewing_time"":26759.77999996394},{""page_index"":2,""viewing_time"":22855.75499990955},{""page_index"":3,""viewing_time"":5096.030000131577}]",58275.53499978967,,,,,,,,,,,,,
,p5vs_yn,2,66007,0.0-2.0-1.0-0.0,f078aa2862041786868ef9f2ad23336df49386eb98fe8259951830bdf7c3dbfd,"[170, 33, 87, 223, 61, 66, 125, 108, 2, 36, 135, 18, 29, 75, 206, 224, 227, 1, 137, 46, 46, 220, 243, 205, 41, 165, 168, 159, 183, 224, 152, 208]",True,,,3.0,1.0,1778.868167847395,j,"[-0.30000000000000004, -0.099999999999999]","[[-0.099999999999999, 0.099999999999999], [0.30000000000000004, -0.099999999999999]]",565.4018321074545,j,practice,1.0,,,
,html-keyboard-response,3,67010,0.0-2.0-1.0-1.0,f078aa2862041786868ef9f2ad23336df49386eb98fe8259951830bdf7c3dbfd,"[170, 33, 87, 223, 61, 66, 125, 108, 2, 36, 135, 18, 29, 75, 206, 224, 227, 1, 137, 46, 46, 220, 243, 205, 41, 165, 168, 159, 183, 224, 152, 208]",True,,,,,,,,,,,,,"<div style=""width:150px;height:56px;font-size:30px;text-align:center;"">correct!</div>",,
,p5vs_yn,4,70188,0.0-2.0-1.0-0.1,f078aa2862041786868ef9f2ad23336df49386eb98fe8259951830bdf7c3dbfd,"[170, 33, 87, 223, 61, 66, 125, 108, 2, 36, 135, 18, 29, 75, 206, 224, 227, 1, 137, 46, 46, 220, 243, 205, 41, 165, 168, 159, 183, 224, 152, 208]",True,,,3.0,0.0,1866.449971171096,f,"[-0.099999999999999, 0.099999999999999]","[[0.099999999999999, -0.30000000000000004], [-0.30000000000000004, 0.099999999999999]]",97.44502883404493,f,practice,1.0,,,
,html-keyboard-response,5,71191,0.0-2.0-1.0-1.1,f078aa2862041786868ef9f2ad23336df49386eb98fe8259951830bdf7c3dbfd,"[170, 33, 87, 223, 61, 66, 125, 108, 2, 36, 135, 18, 29, 75, 206, 224, 227, 1, 137, 46, 46, 220, 243, 205, 41, 165, 168, 159, 183, 224, 152, 208]",True,,,,,,,,,,,,,"<div style=""width:150px;height:56px;font-size:30px;text-align:center;"">correct!</div>",,
,p5vs_yn,6,74370,0.0-2.0-1.0-0.2,f078aa2862041786868ef9f2ad23336df49386eb98fe8259951830bdf7c3dbfd,"[170, 33, 87, 223, 61, 66, 125, 108, 2, 36, 135, 18, 29, 75, 206, 224, 227, 1, 137, 46, 46, 220, 243, 205, 41, 165, 168, 159, 183, 224, 152, 208]",True,,,3.0,0.0,1366.5745211299509,f,"[0.30000000000000004, 0.099999999999999]","[[0.30000000000000004, -0.30000000000000004], [0.099999999999999, -0.099999999999999]]",598.1654787901789,f,practice,1.0,,,
,html-keyboard-response,7,75374,0.0-2.0-1.0-1.2,f078aa2862041786868ef9f2ad23336df49386eb98fe8259951830bdf7c3dbfd,"[170, 33, 87, 223, 61, 66, 125, 108, 2, 36, 135, 18, 29, 75, 206, 224, 227, 1, 137, 46, 46, 220, 243, 205, 41, 165, 168, 159, 183, 224, 152, 208]",True,,,,,,,,,,,,,"<div style=""width:150px;height:56px;font-size:30px;text-align:center;"">correct!</div>",,
,p5vs_yn,8,78687,0.0-2.0-1.0-0.3,f078aa2862041786868ef9f2ad23336df49386eb98fe8259951830bdf7c3dbfd,"[170, 33, 87, 223, 61, 66, 125, 108, 2, 36, 135, 18, 29, 75, 206, 224, 227, 1, 137, 46, 46, 220, 243, 205, 41, 165, 168, 159, 183, 224, 152, 208]",True,,,3.0,1.0,1746.8804728239775,f,"[-0.099999999999999, -0.30000000000000004]","[[0.30000000000000004, 0.30000000000000004], [-0.30000000000000004, -0.30000000000000004]]",355.06952716968954,j,practice,0.0,,,
,html-keyboard-response,9,80188,0.0-2.0-1.0-1.3,f078aa2862041786868ef9f2ad23336df49386eb98fe8259951830bdf7c3dbfd,"[170, 33, 87, 223, 61, 66, 125, 108, 2, 36, 135, 18, 29, 75, 206, 224, 227, 1, 137, 46, 46, 220, 243, 205, 41, 165, 168, 159, 183, 224, 152, 208]",True,,,,,,,,,,,,,"<div style=""width:150px;height:56px;border:0px;font-size:30px;text-align:center"">wrong.</div>",,
,p5vs_yn,10,82222,0.0-2.0-1.0-0.4,f078aa2862041786868ef9f2ad23336df49386eb98fe8259951830bdf7c3dbfd,"[170, 33, 87, 223, 61, 66, 125, 108, 2, 36, 135, 18, 29, 75, 206, 224, 227, 1, 137, 46, 46, 220, 243, 205, 41, 165, 168, 159, 183, 224, 152, 208]",True,,,3.0,1.0,98.68250084109604,f,"[-0.099999999999999, -0.30000000000000004]","[[-0.099999999999999, -0.099999999999999], [0.099999999999999, 0.30000000000000004]]",726.4874991960824,j,practice,0.0,,,
,html-keyboard-response,11,83725,0.0-2.0-1.0-1.4,f078aa2862041786868ef9f2ad23336df49386eb98fe8259951830bdf7c3dbfd,"[170, 33, 87, 223, 61, 66, 125, 108, 2, 36, 135, 18, 29, 75, 206, 224, 227, 1, 137, 46, 46, 220, 243, 205, 41, 165, 168, 159, 183, 224, 152, 208]",True,,,,,,,,,,,,,"<div style=""width:150px;height:56px;border:0px;font-size:30px;text-align:center"">wrong.</div>",,
,p5vs_yn,12,87404,0.0-2.0-1.0-0.5,f078aa2862041786868ef9f2ad23336df49386eb98fe8259951830bdf7c3dbfd,"[170, 33, 87, 223, 61, 66, 125, 108, 2, 36, 135, 18, 29, 75, 206, 224, 227, 1, 137, 46, 46, 220, 243, 205, 41, 165, 168, 159, 183, 224, 152, 208]",True,,,3.0,0.0,1777.7925089001656,f,"[-0.099999999999999, 0.099999999999999]","[[0.099999999999999, -0.30000000000000004], [0.30000000000000004, 0.099999999999999]]",687.5474909320474,f,practice,1.0,,,
,html-keyboard-response,13,88406,0.0-2.0-1.0-1.5,f078aa2862041786868ef9f2ad23336df49386eb98fe8259951830bdf7c3dbfd,"[170, 33, 87, 223, 61, 66, 125, 108, 2, 36, 135, 18, 29, 75, 206, 224, 227, 1, 137, 46, 46, 220, 243, 205, 41, 165, 168, 159, 183, 224, 152, 208]",True,,,,,,,,,,,,,"<div style=""width:150px;height:56px;font-size:30px;text-align:center;"">correct!</div>",,
,p5Text,14,123199,0.0-2.1-0.1-0.1,f078aa2862041786868ef9f2ad23336df49386eb98fe8259951830bdf7c3dbfd,"[170, 33, 87, 223, 61, 66, 125, 108, 2, 36, 135, 18, 29, 75, 206, 224, 227, 1, 137, 46, 46, 220, 243, 205, 41, 165, 168, 159, 183, 224, 152, 208]",True,,,,,,,,,,,,,,,
,p5vs_yn,15,125304,0.0-2.1-1.1-0.6,f078aa2862041786868ef9f2ad23336df49386eb98fe8259951830bdf7c3dbfd,"[170, 33, 87, 223, 61, 66, 125, 108, 2, 36, 135, 18, 29, 75, 206, 224, 227, 1, 137, 46, 46, 220, 243, 205, 41, 165, 168, 159, 183, 224, 152, 208]",True,,,3.0,0.0,405.27744283899665,j,"[-0.099999999999999, 0.30000000000000004]","[[0.099999999999999, 0.099999999999999], [0.30000000000000004, -0.30000000000000004]]",494.89755695685744,f,practice,0.0,,,
,html-keyboard-response,16,126809,0.0-2.1-1.1-1.6,f078aa2862041786868ef9f2ad23336df49386eb98fe8259951830bdf7c3dbfd,"[170, 33, 87, 223, 61, 66, 125, 108, 2, 36, 135, 18, 29, 75, 206, 224, 227, 1, 137, 46, 46, 220, 243, 205, 41, 165, 168, 159, 183, 224, 152, 208]",True,,,,,,,,,,,,,"<div style=""width:150px;height:56px;border:0px;font-size:30px;text-align:center"">wrong.</div>",,
,p5vs_yn,17,128305,0.0-2.1-1.1-0.7,f078aa2862041786868ef9f2ad23336df49386eb98fe8259951830bdf7c3dbfd,"[170, 33, 87, 223, 61, 66, 125, 108, 2, 36, 135, 18, 29, 75, 206, 224, 227, 1, 137, 46, 46, 220, 243, 205, 41, 165, 168, 159, 183, 224, 152, 208]",True,,,3.0,1.0,168.61487827263772,j,"[0.30000000000000004, 0.30000000000000004]","[[-0.099999999999999, -0.099999999999999], [-0.099999999999999, 0.30000000000000004]]",120.85512187331915,j,practice,1.0,,,
,html-keyboard-response,18,129306,0.0-2.1-1.1-1.7,f078aa2862041786868ef9f2ad23336df49386eb98fe8259951830bdf7c3dbfd,"[170, 33, 87, 223, 61, 66, 125, 108, 2, 36, 135, 18, 29, 75, 206, 224, 227, 1, 137, 46, 46, 220, 243, 205, 41, 165, 168, 159, 183, 224, 152, 208]",True,,,,,,,,,,,,,"<div style=""width:150px;height:56px;font-size:30px;text-align:center;"">correct!</div>",,
,p5vs_yn,19,132004,0.0-2.1-1.1-0.8,f078aa2862041786868ef9f2ad23336df49386eb98fe8259951830bdf7c3dbfd,"[170, 33, 87, 223, 61, 66, 125, 108, 2, 36, 135, 18, 29, 75, 206, 224, 227, 1, 137, 46, 46, 220, 243, 205, 41, 165, 168, 159, 183, 224, 152, 208]",True,,,3.0,0.0,972.0409588888288,f,"[-0.30000000000000004, 0.30000000000000004]","[[-0.30000000000000004, 0.099999999999999], [0.099999999999999, -0.30000000000000004]]",509.5790410414338,f,practice,1.0,,,
,html-keyboard-response,20,133006,0.0-2.1-1.1-1.8,f078aa2862041786868ef9f2ad23336df49386eb98fe8259951830bdf7c3dbfd,"[170, 33, 87, 223, 61, 66, 125, 108, 2, 36, 135, 18, 29, 75, 206, 224, 227, 1, 137, 46, 46, 220, 243, 205, 41, 165, 168, 159, 183, 224, 152, 208]",True,,,,,,,,,,,,,"<div style=""width:150px;height:56px;font-size:30px;text-align:center;"">correct!</div>",,
,p5vs_yn,21,136072,0.0-2.1-1.1-0.9,f078aa2862041786868ef9f2ad23336df49386eb98fe8259951830bdf7c3dbfd,"[170, 33, 87, 223, 61, 66, 125, 108, 2, 36, 135, 18, 29, 75, 206, 224, 227, 1, 137, 46, 46, 220, 243, 205, 41, 165, 168, 159, 183, 224, 152, 208]",True,,,3.0,1.0,1106.6714105661958,j,"[-0.30000000000000004, -0.30000000000000004]","[[0.30000000000000004, 0.30000000000000004], [-0.099999999999999, 0.30000000000000004]]",741.0735895391554,j,practice,1.0,,,
,html-keyboard-response,22,137075,0.0-2.1-1.1-1.9,f078aa2862041786868ef9f2ad23336df49386eb98fe8259951830bdf7c3dbfd,"[170, 33, 87, 223, 61, 66, 125, 108, 2, 36, 135, 18, 29, 75, 206, 224, 227, 1, 137, 46, 46, 220, 243, 205, 41, 165, 168, 159, 183, 224, 152, 208]",True,,,,,,,,,,,,,"<div style=""width:150px;height:56px;font-size:30px;text-align:center;"">correct!</div>",,
,p5vs_yn,23,140387,0.0-2.1-1.1-0.10,f078aa2862041786868ef9f2ad23336df49386eb98fe8259951830bdf7c3dbfd,"[170, 33, 87, 223, 61, 66, 125, 108, 2, 36, 135, 18, 29, 75, 206, 224, 227, 1, 137, 46, 46, 220, 243, 205, 41, 165, 168, 159, 183, 224, 152, 208]",True,,,3.0,0.0,1163.2441191002727,f,"[0.099999999999999, -0.30000000000000004]","[[-0.30000000000000004, -0.099999999999999], [-0.099999999999999, 0.30000000000000004]]",933.7458808440715,f,practice,1.0,,,
,html-keyboard-response,24,141389,0.0-2.1-1.1-1.10,f078aa2862041786868ef9f2ad23336df49386eb98fe8259951830bdf7c3dbfd,"[170, 33, 87, 223, 61, 66, 125, 108, 2, 36, 135, 18, 29, 75, 206, 224, 227, 1, 137, 46, 46, 220, 243, 205, 41, 165, 168, 159, 183, 224, 152, 208]",True,,,,,,,,,,,,,"<div style=""width:150px;height:56px;font-size:30px;text-align:center;"">correct!</div>",,
,p5vs_yn,25,143822,0.0-2.1-1.1-0.11,f078aa2862041786868ef9f2ad23336df49386eb98fe8259951830bdf7c3dbfd,"[170, 33, 87, 223, 61, 66, 125, 108, 2, 36, 135, 18, 29, 75, 206, 224, 227, 1, 137, 46, 46, 220, 243, 205, 41, 165, 168, 159, 183, 224, 152, 208]",True,,,3.0,1.0,1037.2427000664175,j,"[-0.30000000000000004, -0.30000000000000004]","[[-0.099999999999999, 0.30000000000000004], [0.099999999999999, -0.099999999999999]]",177.5472997687757,j,practice,1.0,,,
,html-keyboard-response,26,144824,0.0-2.1-1.1-1.11,f078aa2862041786868ef9f2ad23336df49386eb98fe8259951830bdf7c3dbfd,"[170, 33, 87, 223, 61, 66, 125, 108, 2, 36, 135, 18, 29, 75, 206, 224, 227, 1, 137, 46, 46, 220, 243, 205, 41, 165, 168, 159, 183, 224, 152, 208]",True,,,,,,,,,,,,,"<div style=""width:150px;height:56px;font-size:30px;text-align:center;"">correct!</div>",,
,instructions,27,164126,0.0-3.0,f078aa2862041786868ef9f2ad23336df49386eb98fe8259951830bdf7c3dbfd,"[170, 33, 87, 223, 61, 66, 125, 108, 2, 36, 135, 18, 29, 75, 206, 224, 227, 1, 137, 46, 46, 220, 243, 205, 41, 165, 168, 159, 183, 224, 152, 208]",True,"[{""page_index"":0,""viewing_time"":15905.544999986887},{""page_index"":1,""viewing_time"":3391.6500001214445}]",19297.53499990329,,,,,,,,,,,,,
,p5vs_yn,28,167455,0.0-4.0-0.0,f078aa2862041786868ef9f2ad23336df49386eb98fe8259951830bdf7c3dbfd,"[170, 33, 87, 223, 61, 66, 125, 108, 2, 36, 135, 18, 29, 75, 206, 224, 227, 1, 137, 46, 46, 220, 243, 205, 41, 165, 168, 159, 183, 224, 152, 208]",True,,,8.0,0.0,1237.9362422041595,f,"[0.16666666666666602, 0.16666666666666602]","[[-0.16666666666666602, 0.33333333333333304], [0.33333333333333304, 0.33333333333333304], [0.16666666666666602, 0], [0, -0.33333333333333304], [0.33333333333333304, 0], [-0.33333333333333304, -0.16666666666666602], [0.16666666666666602, 0.33333333333333304]]",880.613757763058,f,absence1,1.0,,,
,html-keyboard-response,29,168457,0.0-4.0-1.0,f078aa2862041786868ef9f2ad23336df49386eb98fe8259951830bdf7c3dbfd,"[170, 33, 87, 223, 61, 66, 125, 108, 2, 36, 135, 18, 29, 75, 206, 224, 227, 1, 137, 46, 46, 220, 243, 205, 41, 165, 168, 159, 183, 224, 152, 208]",True,,,,,,,,,,,,,"<div style=""width:150px;height:56px;font-size:30px;text-align:center;"">correct!</div>",,
,p5vs_yn,30,171554,0.0-4.0-0.1,f078aa2862041786868ef9f2ad23336df49386eb98fe8259951830bdf7c3dbfd,"[170, 33, 87, 223, 61, 66, 125, 108, 2, 36, 135, 18, 29, 75, 206, 224, 227, 1, 137, 46, 46, 220, 243, 205, 41, 165, 168, 159, 183, 224, 152, 208]",True,,,8.0,0.0,1009.3764597084373,f,"[0.16666666666666602, -0.16666666666666602]","[[0, 0.16666666666666602], [-0.33333333333333304, 0], [0.33333333333333304, 0], [0, 0.33333333333333304], [-0.16666666666666602, 0.16666666666666602], [0.33333333333333304, 0.16666666666666602], [0.16666666666666602, 0.33333333333333304]]",873.8935403525829,f,absence1,1.0,,,
,html-keyboard-response,31,172556,0.0-4.0-1.1,f078aa2862041786868ef9f2ad23336df49386eb98fe8259951830bdf7c3dbfd,"[170, 33, 87, 223, 61, 66, 125, 108, 2, 36, 135, 18, 29, 75, 206, 224, 227, 1, 137, 46, 46, 220, 243, 205, 41, 165, 168, 159, 183, 224, 152, 208]",True,,,,,,,,,,,,,"<div style=""width:150px;height:56px;font-size:30px;text-align:center;"">correct!</div>",,
,p5vs_yn,32,174504,0.0-4.0-0.2,f078aa2862041786868ef9f2ad23336df49386eb98fe8259951830bdf7c3dbfd,"[170, 33, 87, 223, 61, 66, 125, 108, 2, 36, 135, 18, 29, 75, 206, 224, 227, 1, 137, 46, 46, 220, 243, 205, 41, 165, 168, 159, 183, 224, 152, 208]",True,,,4.0,0.0,603.3016624394804,f,"[0, -0.16666666666666602]","[[-0.16666666666666602, -0.16666666666666602], [-0.16666666666666602, -0.33333333333333304], [-0.16666666666666602, 0]]",139.23833752050996,f,absence1,1.0,,,
,html-keyboard-response,33,175507,0.0-4.0-1.2,f078aa2862041786868ef9f2ad23336df49386eb98fe8259951830bdf7c3dbfd,"[170, 33, 87, 223, 61, 66, 125, 108, 2, 36, 135, 18, 29, 75, 206, 224, 227, 1, 137, 46, 46, 220, 243, 205, 41, 165, 168, 159, 183, 224, 152, 208]",True,,,,,,,,,,,,,"<div style=""width:150px;height:56px;font-size:30px;text-align:center;"">correct!</div>",,
,p5vs_yn,34,178188,0.0-4.0-0.3,f078aa2862041786868ef9f2ad23336df49386eb98fe8259951830bdf7c3dbfd,"[170, 33, 87, 223, 61, 66, 125, 108, 2, 36, 135, 18, 29, 75, 206, 224, 227, 1, 137, 46, 46, 220, 243, 205, 41, 165, 168, 159, 183, 224, 152, 208]",True,,,4.0,0.0,888.2725662086159,f,"[0, 0]","[[0.16666666666666602, 0.16666666666666602], [0, 0.33333333333333304], [-0.33333333333333304, -0.33333333333333304]]",584.7224339377135,f,absence1,1.0,,,
,html-keyboard-response,35,179191,0.0-4.0-1.3,f078aa2862041786868ef9f2ad23336df49386eb98fe8259951830bdf7c3dbfd,"[170, 33, 87, 223, 61, 66, 125, 108, 2, 36, 135, 18, 29, 75, 206, 224, 227, 1, 137, 46, 46, 220, 243, 205, 41, 165, 168, 159, 183, 224, 152, 208]",True,,,,,,,,,,,,,"<div style=""width:150px;height:56px;font-size:30px;text-align:center;"">correct!</div>",,
,p5vs_yn,36,181737,0.0-5.0-0.0,f078aa2862041786868ef9f2ad23336df49386eb98fe8259951830bdf7c3dbfd,"[170, 33, 87, 223, 61, 66, 125, 108, 2, 36, 135, 18, 29, 75, 206, 224, 227, 1, 137, 46, 46, 220, 243, 205, 41, 165, 168, 159, 183, 224, 152, 208]",True,,,4.0,1.0,616.7161601595581,j,"[0, 0.16666666666666602]","[[0, -0.16666666666666602], [0.16666666666666602, 0.33333333333333304], [-0.33333333333333304, -0.16666666666666602]]",716.2238396704197,j,absence1,1.0,,,
,html-keyboard-response,37,182739,0.0-5.0-1.0,f078aa2862041786868ef9f2ad23336df49386eb98fe8259951830bdf7c3dbfd,"[170, 33, 87, 223, 61, 66, 125, 108, 2, 36, 135, 18, 29, 75, 206, 224, 227, 1, 137, 46, 46, 220, 243, 205, 41, 165, 168, 159, 183, 224, 152, 208]",True,,,,,,,,,,,,,"<div style=""width:150px;height:56px;font-size:30px;text-align:center;"">correct!</div>",,
,p5vs_yn,38,184937,0.0-5.0-0.1,f078aa2862041786868ef9f2ad23336df49386eb98fe8259951830bdf7c3dbfd,"[170, 33, 87, 223, 61, 66, 125, 108, 2, 36, 135, 18, 29, 75, 206, 224, 227, 1, 137, 46, 46, 220, 243, 205, 41, 165, 168, 159, 183, 224, 152, 208]",True,,,4.0,1.0,477.8782724868506,j,"[0.16666666666666602, 0.16666666666666602]","[[0, 0], [0.16666666666666602, -0.16666666666666602], [0.16666666666666602, 0.33333333333333304]]",505.87672740221024,j,absence1,1.0,,,
,html-keyboard-response,39,185940,0.0-5.0-1.1,f078aa2862041786868ef9f2ad23336df49386eb98fe8259951830bdf7c3dbfd,"[170, 33, 87, 223, 61, 66, 125, 108, 2, 36, 135, 18, 29, 75, 206, 224, 227, 1, 137, 46, 46, 220, 243, 205, 41, 165, 168, 159, 183, 224, 152, 208]",True,,,,,,,,,,,,,"<div style=""width:150px;height:56px;font-size:30px;text-align:center;"">correct!</div>",,
,p5vs_yn,40,187987,0.0-5.0-0.2,f078aa2862041786868ef9f2ad23336df49386eb98fe8259951830bdf7c3dbfd,"[170, 33, 87, 223, 61, 66, 125, 108, 2, 36, 135, 18, 29, 75, 206, 224, 227, 1, 137, 46, 46, 220, 243, 205, 41, 165, 168, 159, 183, 224, 152, 208]",True,,,8.0,1.0,531.1453251168132,f,"[-0.33333333333333304, 0]","[[0.33333333333333304, 0.33333333333333304], [0.16666666666666602, -0.33333333333333304], [0.16666666666666602, 0.16666666666666602], [0, -0.16666666666666602], [-0.16666666666666602, 0.33333333333333304], [0, 0.33333333333333304], [-0.16666666666666602, 0.16666666666666602]]",307.3146748356521,j,absence1,0.0,,,
,html-keyboard-response,41,189489,0.0-5.0-1.2,f078aa2862041786868ef9f2ad23336df49386eb98fe8259951830bdf7c3dbfd,"[170, 33, 87, 223, 61, 66, 125, 108, 2, 36, 135, 18, 29, 75, 206, 224, 227, 1, 137, 46, 46, 220, 243, 205, 41, 165, 168, 159, 183, 224, 152, 208]",True,,,,,,,,,,,,,"<div style=""width:150px;height:56px;border:0px;font-size:30px;text-align:center"">wrong.</div>",,
,p5vs_yn,42,191471,0.0-5.0-0.3,f078aa2862041786868ef9f2ad23336df49386eb98fe8259951830bdf7c3dbfd,"[170, 33, 87, 223, 61, 66, 125, 108, 2, 36, 135, 18, 29, 75, 206, 224, 227, 1, 137, 46, 46, 220, 243, 205, 41, 165, 168, 159, 183, 224, 152, 208]",True,,,8.0,1.0,428.0063095036894,j,"[0, 0]","[[0.16666666666666602, -0.16666666666666602], [-0.33333333333333304, 0.33333333333333304], [-0.16666666666666602, 0.33333333333333304], [0, 0.16666666666666602], [0.33333333333333304, -0.16666666666666602], [-0.33333333333333304, 0], [-0.16666666666666602, -0.33333333333333304]]",343.70369045063853,j,absence1,1.0,,,
,html-keyboard-response,43,192475,0.0-5.0-1.3,f078aa2862041786868ef9f2ad23336df49386eb98fe8259951830bdf7c3dbfd,"[170, 33, 87, 223, 61, 66, 125, 108, 2, 36, 135, 18, 29, 75, 206, 224, 227, 1, 137, 46, 46, 220, 243, 205, 41, 165, 168, 159, 183, 224, 152, 208]",True,,,,,,,,,,,,,"<div style=""width:150px;height:56px;font-size:30px;text-align:center;"">correct!</div>",,
,p5vs_yn,44,194853,0.0-6.0-0.0,f078aa2862041786868ef9f2ad23336df49386eb98fe8259951830bdf7c3dbfd,"[170, 33, 87, 223, 61, 66, 125, 108, 2, 36, 135, 18, 29, 75, 206, 224, 227, 1, 137, 46, 46, 220, 243, 205, 41, 165, 168, 159, 183, 224, 152, 208]",True,,,8.0,0.0,850.3673222847283,f,"[-0.33333333333333304, 0]","[[0.16666666666666602, 0.16666666666666602], [0.16666666666666602, 0], [0, 0.16666666666666602], [0.33333333333333304, 0.16666666666666602], [-0.33333333333333304, 0.33333333333333304], [0.33333333333333304, -0.33333333333333304], [0.16666666666666602, -0.16666666666666602]]",309.11767785437405,f,absence1,1.0,,,
,html-keyboard-response,45,195854,0.0-6.0-1.0,f078aa2862041786868ef9f2ad23336df49386eb98fe8259951830bdf7c3dbfd,"[170, 33, 87, 223, 61, 66, 125, 108, 2, 36, 135, 18, 29, 75, 206, 224, 227, 1, 137, 46, 46, 220, 243, 205, 41, 165, 168, 159, 183, 224, 152, 208]",True,,,,,,,,,,,,,"<div style=""width:150px;height:56px;font-size:30px;text-align:center;"">correct!</div>",,
,p5vs_yn,46,197738,0.0-6.0-0.1,f078aa2862041786868ef9f2ad23336df49386eb98fe8259951830bdf7c3dbfd,"[170, 33, 87, 223, 61, 66, 125, 108, 2, 36, 135, 18, 29, 75, 206, 224, 227, 1, 137, 46, 46, 220, 243, 205, 41, 165, 168, 159, 183, 224, 152, 208]",True,,,4.0,0.0,615.1563864666969,f,"[-0.33333333333333304, -0.16666666666666602]","[[0.33333333333333304, -0.33333333333333304], [0.16666666666666602, -0.33333333333333304], [-0.33333333333333304, 0]]",62.213613418862224,f,absence1,1.0,,,
,html-keyboard-response,47,198740,0.0-6.0-1.1,f078aa2862041786868ef9f2ad23336df49386eb98fe8259951830bdf7c3dbfd,"[170, 33, 87, 223, 61, 66, 125, 108, 2, 36, 135, 18, 29, 75, 206, 224, 227, 1, 137, 46, 46, 220, 243, 205, 41, 165, 168, 159, 183, 224, 152, 208]",True,,,,,,,,,,,,,"<div style=""width:150px;height:56px;font-size:30px;text-align:center;"">correct!</div>",,
,p5vs_yn,48,201037,0.0-6.0-0.2,f078aa2862041786868ef9f2ad23336df49386eb98fe8259951830bdf7c3dbfd,"[170, 33, 87, 223, 61, 66, 125, 108, 2, 36, 135, 18, 29, 75, 206, 224, 227, 1, 137, 46, 46, 220, 243, 205, 41, 165, 168, 159, 183, 224, 152, 208]",True,,,8.0,0.0,508.09898944571614,f,"[-0.16666666666666602, 0]","[[0.16666666666666602, -0.16666666666666602], [0.33333333333333304, 0], [-0.16666666666666602, 0.16666666666666602], [-0.33333333333333304, -0.33333333333333304], [0, -0.16666666666666602], [-0.33333333333333304, -0.16666666666666602], [0.16666666666666602, 0.16666666666666602]]",570.8810104988515,f,absence1,1.0,,,
,html-keyboard-response,49,202040,0.0-6.0-1.2,f078aa2862041786868ef9f2ad23336df49386eb98fe8259951830bdf7c3dbfd,"[170, 33, 87, 223, 61, 66, 125, 108, 2, 36, 135, 18, 29, 75, 206, 224, 227, 1, 137, 46, 46, 220, 243, 205, 41, 165, 168, 159, 183, 224, 152, 208]",True,,,,,,,,,,,,,"<div style=""width:150px;height:56px;font-size:30px;text-align:center;"">correct!</div>",,
,p5vs_yn,50,204237,0.0-6.0-0.3,f078aa2862041786868ef9f2ad23336df49386eb98fe8259951830bdf7c3dbfd,"[170, 33, 87, 223, 61, 66, 125, 108, 2, 36, 135, 18, 29, 75, 206, 224, 227, 1, 137, 46, 46, 220, 243, 205, 41, 165, 168, 159, 183, 224, 152, 208]",True,,,4.0,0.0,611.2174544949085,f,"[0.33333333333333304, 0.33333333333333304]","[[0, -0.16666666666666602], [-0.33333333333333304, 0.33333333333333304], [0.16666666666666602, 0]]",376.35754561051726,f,absence1,1.0,,,
,html-keyboard-response,51,205240,0.0-6.0-1.3,f078aa2862041786868ef9f2ad23336df49386eb98fe8259951830bdf7c3dbfd,"[170, 33, 87, 223, 61, 66, 125, 108, 2, 36, 135, 18, 29, 75, 206, 224, 227, 1, 137, 46, 46, 220, 243, 205, 41, 165, 168, 159, 183, 224, 152, 208]",True,,,,,,,,,,,,,"<div style=""width:150px;height:56px;font-size:30px;text-align:center;"">correct!</div>",,
,survey-text,52,212886,0.0-7.0,f078aa2862041786868ef9f2ad23336df49386eb98fe8259951830bdf7c3dbfd,"[170, 33, 87, 223, 61, 66, 125, 108, 2, 36, 135, 18, 29, 75, 206, 224, 227, 1, 137, 46, 46, 220, 243, 205, 41, 165, 168, 159, 183, 224, 152, 208]",True,,7640.420000068843,,,,,,,,,,,,,"{""worker_comments"":""""}"
,p5Text,53,214613,0.0-8.0,f078aa2862041786868ef9f2ad23336df49386eb98fe8259951830bdf7c3dbfd,"[170, 33, 87, 223, 61, 66, 125, 108, 2, 36, 135, 18, 29, 75, 206, 224, 227, 1, 137, 46, 46, 220, 243, 205, 41, 165, 168, 159, 183, 224, 152, 208]",True,,,,,,,,,,,,,,,
1.0,fullscreen,0,3497,0.0-0.0,f078aa2862041786868ef9f2ad23336df49386eb98fe8259951830bdf7c3dbfd,"[170, 33, 87, 223, 61, 66, 125, 108, 2, 36, 135, 18, 29, 75, 206, 224, 227, 1, 137, 46, 46, 220, 243, 205, 41, 165, 168, 159, 183, 224, 152, 208]",True,,,,,,,,,,,,,,,
,instructions,1,26142,0.0-1.0,f078aa2862041786868ef9f2ad23336df49386eb98fe8259951830bdf7c3dbfd,"[170, 33, 87, 223, 61, 66, 125, 108, 2, 36, 135, 18, 29, 75, 206, 224, 227, 1, 137, 46, 46, 220, 243, 205, 41, 165, 168, 159, 183, 224, 152, 208]",True,"[{""page_index"":0,""viewing_time"":3972.469999920577},{""page_index"":1,""viewing_time"":11516.014999710023},{""page_index"":2,""viewing_time"":4015.9650002606213},{""page_index"":3,""viewing_time"":3136.0100000165403}]",22641.444999724627,,,,,,,,,,,,,
,p5vs_yn,2,28076,0.0-2.0-1.0-0.0,f078aa2862041786868ef9f2ad23336df49386eb98fe8259951830bdf7c3dbfd,"[170, 33, 87, 223, 61, 66, 125, 108, 2, 36, 135, 18, 29, 75, 206, 224, 227, 1, 137, 46, 46, 220, 243, 205, 41, 165, 168, 159, 183, 224, 152, 208]",True,,,3.0,1.0,144.45816790685058,j,"[-0.30000000000000004, -0.099999999999999]","[[-0.099999999999999, 0.099999999999999], [0.30000000000000004, -0.099999999999999]]",565.4018321074545,j,practice,1.0,,,
,html-keyboard-response,3,29088,0.0-2.0-1.0-1.0,f078aa2862041786868ef9f2ad23336df49386eb98fe8259951830bdf7c3dbfd,"[170, 33, 87, 223, 61, 66, 125, 108, 2, 36, 135, 18, 29, 75, 206, 224, 227, 1, 137, 46, 46, 220, 243, 205, 41, 165, 168, 159, 183, 224, 152, 208]",True,,,,,,,,,,,,,"<div style=""width:150px;height:56px;font-size:30px;text-align:center;"">correct!</div>",,
,p5vs_yn,4,30840,0.0-2.0-1.0-0.1,f078aa2862041786868ef9f2ad23336df49386eb98fe8259951830bdf7c3dbfd,"[170, 33, 87, 223, 61, 66, 125, 108, 2, 36, 135, 18, 29, 75, 206, 224, 227, 1, 137, 46, 46, 220, 243, 205, 41, 165, 168, 159, 183, 224, 152, 208]",True,,,3.0,0.0,428.67997121065855,j,"[-0.099999999999999, 0.099999999999999]","[[0.099999999999999, -0.30000000000000004], [-0.30000000000000004, 0.099999999999999]]",97.44502883404493,f,practice,0.0,,,
,html-keyboard-response,5,32342,0.0-2.0-1.0-1.1,f078aa2862041786868ef9f2ad23336df49386eb98fe8259951830bdf7c3dbfd,"[170, 33, 87, 223, 61, 66, 125, 108, 2, 36, 135, 18, 29, 75, 206, 224, 227, 1, 137, 46, 46, 220, 243, 205, 41, 165, 168, 159, 183, 224, 152, 208]",True,,,,,,,,,,,,,"<div style=""width:150px;height:56px;border:0px;font-size:30px;text-align:center"">wrong.</div>",,
,p5vs_yn,6,35740,0.0-2.0-1.0-0.2,f078aa2862041786868ef9f2ad23336df49386eb98fe8259951830bdf7c3dbfd,"[170, 33, 87, 223, 61, 66, 125, 108, 2, 36, 135, 18, 29, 75, 206, 224, 227, 1, 137, 46, 46, 220, 243, 205, 41, 165, 168, 159, 183, 224, 152, 208]",True,,,3.0,0.0,1594.4895213004202,f,"[0.30000000000000004, 0.099999999999999]","[[0.30000000000000004, -0.30000000000000004], [0.099999999999999, -0.099999999999999]]",598.1654787901789,f,practice,1.0,,,
,html-keyboard-response,7,36742,0.0-2.0-1.0-1.2,f078aa2862041786868ef9f2ad23336df49386eb98fe8259951830bdf7c3dbfd,"[170, 33, 87, 223, 61, 66, 125, 108, 2, 36, 135, 18, 29, 75, 206, 224, 227, 1, 137, 46, 46, 220, 243, 205, 41, 165, 168, 159, 183, 224, 152, 208]",True,,,,,,,,,,,,,"<div style=""width:150px;height:56px;font-size:30px;text-align:center;"">correct!</div>",,
,p5vs_yn,8,39574,0.0-2.0-1.0-0.3,f078aa2862041786868ef9f2ad23336df49386eb98fe8259951830bdf7c3dbfd,"[170, 33, 87, 223, 61, 66, 125, 108, 2, 36, 135, 18, 29, 75, 206, 224, 227, 1, 137, 46, 46, 220, 243, 205, 41, 165, 168, 159, 183, 224, 152, 208]",True,,,3.0,1.0,1246.4654729235917,j,"[-0.099999999999999, -0.30000000000000004]","[[0.30000000000000004, 0.30000000000000004], [-0.30000000000000004, -0.30000000000000004]]",355.06952716968954,j,practice,1.0,,,
,html-keyboard-response,9,40577,0.0-2.0-1.0-1.3,f078aa2862041786868ef9f2ad23336df49386eb98fe8259951830bdf7c3dbfd,"[170, 33, 87, 223, 61, 66, 125, 108, 2, 36, 135, 18, 29, 75, 206, 224, 227, 1, 137, 46, 46, 220, 243, 205, 41, 165, 168, 159, 183, 224, 152, 208]",True,,,,,,,,,,,,,"<div style=""width:150px;height:56px;font-size:30px;text-align:center;"">correct!</div>",,
,p5vs_yn,10,43540,0.0-2.0-1.0-0.4,f078aa2862041786868ef9f2ad23336df49386eb98fe8259951830bdf7c3dbfd,"[170, 33, 87, 223, 61, 66, 125, 108, 2, 36, 135, 18, 29, 75, 206, 224, 227, 1, 137, 46, 46, 220, 243, 205, 41, 165, 168, 159, 183, 224, 152, 208]",True,,,3.0,1.0,1006.6875007003546,j,"[-0.099999999999999, -0.30000000000000004]","[[-0.099999999999999, -0.099999999999999], [0.099999999999999, 0.30000000000000004]]",726.4874991960824,j,practice,1.0,,,
,html-keyboard-response,11,44543,0.0-2.0-1.0-1.4,f078aa2862041786868ef9f2ad23336df49386eb98fe8259951830bdf7c3dbfd,"[170, 33, 87, 223, 61, 66, 125, 108, 2, 36, 135, 18, 29, 75, 206, 224, 227, 1, 137, 46, 46, 220, 243, 205, 41, 165, 168, 159, 183, 224, 152, 208]",True,,,,,,,,,,,,,"<div style=""width:150px;height:56px;font-size:30px;text-align:center;"">correct!</div>",,
,p5vs_yn,12,47090,0.0-2.0-1.0-0.5,f078aa2862041786868ef9f2ad23336df49386eb98fe8259951830bdf7c3dbfd,"[170, 33, 87, 223, 61, 66, 125, 108, 2, 36, 135, 18, 29, 75, 206, 224, 227, 1, 137, 46, 46, 220, 243, 205, 41, 165, 168, 159, 183, 224, 152, 208]",True,,,3.0,0.0,632.7075089327991,f,"[-0.099999999999999, 0.099999999999999]","[[0.099999999999999, -0.30000000000000004], [0.30000000000000004, 0.099999999999999]]",687.5474909320474,f,practice,1.0,,,
,html-keyboard-response,13,48092,0.0-2.0-1.0-1.5,f078aa2862041786868ef9f2ad23336df49386eb98fe8259951830bdf7c3dbfd,"[170, 33, 87, 223, 61, 66, 125, 108, 2, 36, 135, 18, 29, 75, 206, 224, 227, 1, 137, 46, 46, 220, 243, 205, 41, 165, 168, 159, 183, 224, 152, 208]",True,,,,,,,,,,,,,"<div style=""width:150px;height:56px;font-size:30px;text-align:center;"">correct!</div>",,
,instructions,14,56189,0.0-3.0,f078aa2862041786868ef9f2ad23336df49386eb98fe8259951830bdf7c3dbfd,"[170, 33, 87, 223, 61, 66, 125, 108, 2, 36, 135, 18, 29, 75, 206, 224, 227, 1, 137, 46, 46, 220, 243, 205, 41, 165, 168, 159, 183, 224, 152, 208]",True,"[{""page_index"":0,""viewing_time"":5392.789999954402},{""page_index"":1,""viewing_time"":2700.0049999915063}]",8093.1000001728535,,,,,,,,,,,,,
,p5vs_yn,15,59604,0.0-4.0-0.0,f078aa2862041786868ef9f2ad23336df49386eb98fe8259951830bdf7c3dbfd,"[170, 33, 87, 223, 61, 66, 125, 108, 2, 36, 135, 18, 29, 75, 206, 224, 227, 1, 137, 46, 46, 220, 243, 205, 41, 165, 168, 159, 183, 224, 152, 208]",True,,,8.0,0.0,1258.4081224165857,f,"[0.16666666666666602, 0.33333333333333304]","[[0.33333333333333304, 0.16666666666666602], [0, -0.33333333333333304], [0.33333333333333304, -0.33333333333333304], [-0.33333333333333304, -0.33333333333333304], [0.16666666666666602, 0], [0, -0.16666666666666602], [0.33333333333333304, 0]]",927.4068777449429,f,absence1,1.0,,,
,html-keyboard-response,16,60605,0.0-4.0-1.0,f078aa2862041786868ef9f2ad23336df49386eb98fe8259951830bdf7c3dbfd,"[170, 33, 87, 223, 61, 66, 125, 108, 2, 36, 135, 18, 29, 75, 206, 224, 227, 1, 137, 46, 46, 220, 243, 205, 41, 165, 168, 159, 183, 224, 152, 208]",True,,,,,,,,,,,,,"<div style=""width:150px;height:56px;font-size:30px;text-align:center;"">correct!</div>",,
,p5vs_yn,17,62788,0.0-4.0-0.1,f078aa2862041786868ef9f2ad23336df49386eb98fe8259951830bdf7c3dbfd,"[170, 33, 87, 223, 61, 66, 125, 108, 2, 36, 135, 18, 29, 75, 206, 224, 227, 1, 137, 46, 46, 220, 243, 205, 41, 165, 168, 159, 183, 224, 152, 208]",True,,,8.0,0.0,853.9788790047169,f,"[-0.16666666666666602, 0.33333333333333304]","[[0, 0.16666666666666602], [0.16666666666666602, -0.33333333333333304], [0, -0.16666666666666602], [0.33333333333333304, -0.33333333333333304], [0.16666666666666602, 0.16666666666666602], [-0.16666666666666602, -0.33333333333333304], [-0.33333333333333304, 0.16666666666666602]]",101.05112101882696,f,absence1,1.0,,,
,html-keyboard-response,18,63790,0.0-4.0-1.1,f078aa2862041786868ef9f2ad23336df49386eb98fe8259951830bdf7c3dbfd,"[170, 33, 87, 223, 61, 66, 125, 108, 2, 36, 135, 18, 29, 75, 206, 224, 227, 1, 137, 46, 46, 220, 243, 205, 41, 165, 168, 159, 183, 224, 152, 208]",True,,,,,,,,,,,,,"<div style=""width:150px;height:56px;font-size:30px;text-align:center;"">correct!</div>",,
,p5vs_yn,19,66370,0.0-4.0-0.2,f078aa2862041786868ef9f2ad23336df49386eb98fe8259951830bdf7c3dbfd,"[170, 33, 87, 223, 61, 66, 125, 108, 2, 36, 135, 18, 29, 75, 206, 224, 227, 1, 137, 46, 46, 220, 243, 205, 41, 165, 168, 159, 183, 224, 152, 208]",True,,,4.0,0.0,512.6702249515802,f,"[0, 0.16666666666666602]","[[0.33333333333333304, 0.16666666666666602], [-0.16666666666666602, 0], [-0.33333333333333304, -0.16666666666666602]]",833.7647749576718,f,absence1,1.0,,,
,html-keyboard-response,20,67372,0.0-4.0-1.2,f078aa2862041786868ef9f2ad23336df49386eb98fe8259951830bdf7c3dbfd,"[170, 33, 87, 223, 61, 66, 125, 108, 2, 36, 135, 18, 29, 75, 206, 224, 227, 1, 137, 46, 46, 220, 243, 205, 41, 165, 168, 159, 183, 224, 152, 208]",True,,,,,,,,,,,,,"<div style=""width:150px;height:56px;font-size:30px;text-align:center;"">correct!</div>",,
,p5vs_yn,21,70137,0.0-4.0-0.3,f078aa2862041786868ef9f2ad23336df49386eb98fe8259951830bdf7c3dbfd,"[170, 33, 87, 223, 61, 66, 125, 108, 2, 36, 135, 18, 29, 75, 206, 224, 227, 1, 137, 46, 46, 220, 243, 205, 41, 165, 168, 159, 183, 224, 152, 208]",True,,,4.0,0.0,966.5276121348143,f,"[-0.16666666666666602, 0]","[[-0.33333333333333304, -0.33333333333333304], [0.16666666666666602, -0.16666666666666602], [-0.33333333333333304, 0.33333333333333304]]",571.9173876568675,f,absence1,1.0,,,
,html-keyboard-response,22,71140,0.0-4.0-1.3,f078aa2862041786868ef9f2ad23336df49386eb98fe8259951830bdf7c3dbfd,"[170, 33, 87, 223, 61, 66, 125, 108, 2, 36, 135, 18, 29, 75, 206, 224, 227, 1, 137, 46, 46, 220, 243, 205, 41, 165, 168, 159, 183, 224, 152, 208]",True,,,,,,,,,,,,,"<div style=""width:150px;height:56px;font-size:30px;text-align:center;"">correct!</div>",,
,p5vs_yn,23,73253,0.0-5.0-0.0,f078aa2862041786868ef9f2ad23336df49386eb98fe8259951830bdf7c3dbfd,"[170, 33, 87, 223, 61, 66, 125, 108, 2, 36, 135, 18, 29, 75, 206, 224, 227, 1, 137, 46, 46, 220, 243, 205, 41, 165, 168, 159, 183, 224, 152, 208]",True,,,4.0,1.0,884.5281034708023,j,"[-0.16666666666666602, 0.33333333333333304]","[[0.16666666666666602, -0.16666666666666602], [0.16666666666666602, -0.33333333333333304], [0.33333333333333304, 0.33333333333333304]]",8.951896335929632,j,absence1,1.0,,,
,html-keyboard-response,24,74256,0.0-5.0-1.0,f078aa2862041786868ef9f2ad23336df49386eb98fe8259951830bdf7c3dbfd,"[170, 33, 87, 223, 61, 66, 125, 108, 2, 36, 135, 18, 29, 75, 206, 224, 227, 1, 137, 46, 46, 220, 243, 205, 41, 165, 168, 159, 183, 224, 152, 208]",True,,,,,,,,,,,,,"<div style=""width:150px;height:56px;font-size:30px;text-align:center;"">correct!</div>",,
,p5vs_yn,25,77137,0.0-5.0-0.1,f078aa2862041786868ef9f2ad23336df49386eb98fe8259951830bdf7c3dbfd,"[170, 33, 87, 223, 61, 66, 125, 108, 2, 36, 135, 18, 29, 75, 206, 224, 227, 1, 137, 46, 46, 220, 243, 205, 41, 165, 168, 159, 183, 224, 152, 208]",True,,,4.0,1.0,784.3436570372432,j,"[0, -0.16666666666666602]","[[0.16666666666666602, -0.33333333333333304], [0.33333333333333304, -0.33333333333333304], [-0.16666666666666602, 0]]",887.2313431929797,j,absence1,1.0,,,
,html-keyboard-response,26,78139,0.0-5.0-1.1,f078aa2862041786868ef9f2ad23336df49386eb98fe8259951830bdf7c3dbfd,"[170, 33, 87, 223, 61, 66, 125, 108, 2, 36, 135, 18, 29, 75, 206, 224, 227, 1, 137, 46, 46, 220, 243, 205, 41, 165, 168, 159, 183, 224, 152, 208]",True,,,,,,,,,,,,,"<div style=""width:150px;height:56px;font-size:30px;text-align:center;"">correct!</div>",,
,p5vs_yn,27,80419,0.0-5.0-0.2,f078aa2862041786868ef9f2ad23336df49386eb98fe8259951830bdf7c3dbfd,"[170, 33, 87, 223, 61, 66, 125, 108, 2, 36, 135, 18, 29, 75, 206, 224, 227, 1, 137, 46, 46, 220, 243, 205, 41, 165, 168, 159, 183, 224, 152, 208]",True,,,8.0,1.0,926.9995833281428,f,"[0.33333333333333304, 0.16666666666666602]","[[-0.33333333333333304, 0.33333333333333304], [0, -0.16666666666666602], [-0.33333333333333304, 0.16666666666666602], [-0.16666666666666602, -0.33333333333333304], [0, 0], [0, -0.33333333333333304], [-0.16666666666666602, -0.16666666666666602]]",125.52041676826775,j,absence1,0.0,,,
,html-keyboard-response,28,81920,0.0-5.0-1.2,f078aa2862041786868ef9f2ad23336df49386eb98fe8259951830bdf7c3dbfd,"[170, 33, 87, 223, 61, 66, 125, 108, 2, 36, 135, 18, 29, 75, 206, 224, 227, 1, 137, 46, 46, 220, 243, 205, 41, 165, 168, 159, 183, 224, 152, 208]",True,,,,,,,,,,,,,"<div style=""width:150px;height:56px;border:0px;font-size:30px;text-align:center"">wrong.</div>",,
,p5vs_yn,29,84586,0.0-5.0-0.3,f078aa2862041786868ef9f2ad23336df49386eb98fe8259951830bdf7c3dbfd,"[170, 33, 87, 223, 61, 66, 125, 108, 2, 36, 135, 18, 29, 75, 206, 224, 227, 1, 137, 46, 46, 220, 243, 205, 41, 165, 168, 159, 183, 224, 152, 208]",True,,,8.0,1.0,658.872135868296,j,"[-0.16666666666666602, -0.33333333333333304]","[[0, -0.33333333333333304], [0.33333333333333304, -0.33333333333333304], [0, -0.16666666666666602], [-0.33333333333333304, -0.33333333333333304], [0.33333333333333304, 0.33333333333333304], [0.16666666666666602, -0.16666666666666602], [0.16666666666666602, -0.33333333333333304]]",780.0028643105179,j,absence1,1.0,,,
,html-keyboard-response,30,85588,0.0-5.0-1.3,f078aa2862041786868ef9f2ad23336df49386eb98fe8259951830bdf7c3dbfd,"[170, 33, 87, 223, 61, 66, 125, 108, 2, 36, 135, 18, 29, 75, 206, 224, 227, 1, 137, 46, 46, 220, 243, 205, 41, 165, 168, 159, 183, 224, 152, 208]",True,,,,,,,,,,,,,"<div style=""width:150px;height:56px;font-size:30px;text-align:center;"">correct!</div>",,
,p5vs_yn,31,88419,0.0-6.0-0.0,f078aa2862041786868ef9f2ad23336df49386eb98fe8259951830bdf7c3dbfd,"[170, 33, 87, 223, 61, 66, 125, 108, 2, 36, 135, 18, 29, 75, 206, 224, 227, 1, 137, 46, 46, 220, 243, 205, 41, 165, 168, 159, 183, 224, 152, 208]",True,,,8.0,0.0,1046.3870670180768,f,"[-0.16666666666666602, 0.33333333333333304]","[[-0.33333333333333304, 0], [0.33333333333333304, -0.33333333333333304], [0.16666666666666602, -0.16666666666666602], [0.16666666666666602, 0], [-0.16666666666666602, 0.16666666666666602], [0.33333333333333304, 0.33333333333333304], [-0.16666666666666602, -0.16666666666666602]]",550.9729331824929,f,absence1,1.0,,,
,html-keyboard-response,32,89423,0.0-6.0-1.0,f078aa2862041786868ef9f2ad23336df49386eb98fe8259951830bdf7c3dbfd,"[170, 33, 87, 223, 61, 66, 125, 108, 2, 36, 135, 18, 29, 75, 206, 224, 227, 1, 137, 46, 46, 220, 243, 205, 41, 165, 168, 159, 183, 224, 152, 208]",True,,,,,,,,,,,,,"<div style=""width:150px;height:56px;font-size:30px;text-align:center;"">correct!</div>",,
,p5vs_yn,33,91368,0.0-6.0-0.1,f078aa2862041786868ef9f2ad23336df49386eb98fe8259951830bdf7c3dbfd,"[170, 33, 87, 223, 61, 66, 125, 108, 2, 36, 135, 18, 29, 75, 206, 224, 227, 1, 137, 46, 46, 220, 243, 205, 41, 165, 168, 159, 183, 224, 152, 208]",True,,,4.0,0.0,588.1809778045863,f,"[-0.16666666666666602, 0.33333333333333304]","[[0.33333333333333304, -0.16666666666666602], [0.33333333333333304, -0.33333333333333304], [-0.33333333333333304, 0.33333333333333304]]",132.879022276029,f,absence1,1.0,,,
,html-keyboard-response,34,92372,0.0-6.0-1.1,f078aa2862041786868ef9f2ad23336df49386eb98fe8259951830bdf7c3dbfd,"[170, 33, 87, 223, 61, 66, 125, 108, 2, 36, 135, 18, 29, 75, 206, 224, 227, 1, 137, 46, 46, 220, 243, 205, 41, 165, 168, 159, 183, 224, 152, 208]",True,,,,,,,,,,,,,"<div style=""width:150px;height:56px;font-size:30px;text-align:center;"">correct!</div>",,
,p5vs_yn,35,94484,0.0-6.0-0.2,f078aa2862041786868ef9f2ad23336df49386eb98fe8259951830bdf7c3dbfd,"[170, 33, 87, 223, 61, 66, 125, 108, 2, 36, 135, 18, 29, 75, 206, 224, 227, 1, 137, 46, 46, 220, 243, 205, 41, 165, 168, 159, 183, 224, 152, 208]",True,,,8.0,0.0,511.9117337279022,f,"[-0.33333333333333304, 0]","[[0.33333333333333304, 0], [0.33333333333333304, 0.16666666666666602], [-0.16666666666666602, 0], [0.16666666666666602, -0.33333333333333304], [0.16666666666666602, 0.16666666666666602], [0, 0.16666666666666602], [0, -0.33333333333333304]]",370.21826626732945,f,absence1,1.0,,,
,html-keyboard-response,36,95486,0.0-6.0-1.2,f078aa2862041786868ef9f2ad23336df49386eb98fe8259951830bdf7c3dbfd,"[170, 33, 87, 223, 61, 66, 125, 108, 2, 36, 135, 18, 29, 75, 206, 224, 227, 1, 137, 46, 46, 220, 243, 205, 41, 165, 168, 159, 183, 224, 152, 208]",True,,,,,,,,,,,,,"<div style=""width:150px;height:56px;font-size:30px;text-align:center;"">correct!</div>",,
,p5vs_yn,37,98452,0.0-6.0-0.3,f078aa2862041786868ef9f2ad23336df49386eb98fe8259951830bdf7c3dbfd,"[170, 33, 87, 223, 61, 66, 125, 108, 2, 36, 135, 18, 29, 75, 206, 224, 227, 1, 137, 46, 46, 220, 243, 205, 41, 165, 168, 159, 183, 224, 152, 208]",True,,,4.0,0.0,821.7542741447687,f,"[0, -0.16666666666666602]","[[-0.33333333333333304, 0.33333333333333304], [-0.33333333333333304, -0.16666666666666602], [0, 0]]",909.4407260417938,f,absence1,1.0,,,
,html-keyboard-response,38,99454,0.0-6.0-1.3,f078aa2862041786868ef9f2ad23336df49386eb98fe8259951830bdf7c3dbfd,"[170, 33, 87, 223, 61, 66, 125, 108, 2, 36, 135, 18, 29, 75, 206, 224, 227, 1, 137, 46, 46, 220, 243, 205, 41, 165, 168, 159, 183, 224, 152, 208]",True,,,,,,,,,,,,,"<div style=""width:150px;height:56px;font-size:30px;text-align:center;"">correct!</div>",,
,survey-text,39,103470,0.0-7.0,f078aa2862041786868ef9f2ad23336df49386eb98fe8259951830bdf7c3dbfd,"[170, 33, 87, 223, 61, 66, 125, 108, 2, 36, 135, 18, 29, 75, 206, 224, 227, 1, 137, 46, 46, 220, 243, 205, 41, 165, 168, 159, 183, 224, 152, 208]",True,,4004.600000102073,,,,,,,,,,,,,"{""worker_comments"":""""}"
,p5Text,40,106131,0.0-8.0,f078aa2862041786868ef9f2ad23336df49386eb98fe8259951830bdf7c3dbfd,"[170, 33, 87, 223, 61, 66, 125, 108, 2, 36, 135, 18, 29, 75, 206, 224, 227, 1, 137, 46, 46, 220, 243, 205, 41, 165, 168, 159, 183, 224, 152, 208]",True,,,,,,,,,,,,,,,
1.0,fullscreen,0,4479,0.0-0.0,f078aa2862041786868ef9f2ad23336df49386eb98fe8259951830bdf7c3dbfd,"[170, 33, 87, 223, 61, 66, 125, 108, 2, 36, 135, 18, 29, 75, 206, 224, 227, 1, 137, 46, 46, 220, 243, 205, 41, 165, 168, 159, 183, 224, 152, 208]",True,,,,,,,,,,,,,,,
,instructions,1,41740,0.0-1.0,f078aa2862041786868ef9f2ad23336df49386eb98fe8259951830bdf7c3dbfd,"[170, 33, 87, 223, 61, 66, 125, 108, 2, 36, 135, 18, 29, 75, 206, 224, 227, 1, 137, 46, 46, 220, 243, 205, 41, 165, 168, 159, 183, 224, 152, 208]",True,"[{""page_index"":0,""viewing_time"":5452.705000061542},{""page_index"":1,""viewing_time"":21592.07500005141},{""page_index"":2,""viewing_time"":5937.374999979511},{""page_index"":3,""viewing_time"":4274.1900000255555}]",37258.18999996409,,,,,,,,,,,,,
,p5vs_yn,2,48277,0.0-2.0-1.0-0.0,f078aa2862041786868ef9f2ad23336df49386eb98fe8259951830bdf7c3dbfd,"[170, 33, 87, 223, 61, 66, 125, 108, 2, 36, 135, 18, 29, 75, 206, 224, 227, 1, 137, 46, 46, 220, 243, 205, 41, 165, 168, 159, 183, 224, 152, 208]",True,,,3.0,1.0,4693.85316777043,j,"[-0.30000000000000004, -0.099999999999999]","[[-0.099999999999999, 0.099999999999999], [0.30000000000000004, -0.099999999999999]]",565.4018321074545,j,practice,1.0,,,
,html-keyboard-response,3,49279,0.0-2.0-1.0-1.0,f078aa2862041786868ef9f2ad23336df49386eb98fe8259951830bdf7c3dbfd,"[170, 33, 87, 223, 61, 66, 125, 108, 2, 36, 135, 18, 29, 75, 206, 224, 227, 1, 137, 46, 46, 220, 243, 205, 41, 165, 168, 159, 183, 224, 152, 208]",True,,,,,,,,,,,,,"<div style=""width:150px;height:56px;font-size:30px;text-align:center;"">correct!</div>",,
,p5vs_yn,4,52463,0.0-2.0-1.0-0.1,f078aa2862041786868ef9f2ad23336df49386eb98fe8259951830bdf7c3dbfd,"[170, 33, 87, 223, 61, 66, 125, 108, 2, 36, 135, 18, 29, 75, 206, 224, 227, 1, 137, 46, 46, 220, 243, 205, 41, 165, 168, 159, 183, 224, 152, 208]",True,,,3.0,0.0,1870.5849712248892,f,"[-0.099999999999999, 0.099999999999999]","[[0.099999999999999, -0.30000000000000004], [-0.30000000000000004, 0.099999999999999]]",97.44502883404493,f,practice,1.0,,,
,html-keyboard-response,5,53465,0.0-2.0-1.0-1.1,f078aa2862041786868ef9f2ad23336df49386eb98fe8259951830bdf7c3dbfd,"[170, 33, 87, 223, 61, 66, 125, 108, 2, 36, 135, 18, 29, 75, 206, 224, 227, 1, 137, 46, 46, 220, 243, 205, 41, 165, 168, 159, 183, 224, 152, 208]",True,,,,,,,,,,,,,"<div style=""width:150px;height:56px;font-size:30px;text-align:center;"">correct!</div>",,
,p5vs_yn,6,56345,0.0-2.0-1.0-0.2,f078aa2862041786868ef9f2ad23336df49386eb98fe8259951830bdf7c3dbfd,"[170, 33, 87, 223, 61, 66, 125, 108, 2, 36, 135, 18, 29, 75, 206, 224, 227, 1, 137, 46, 46, 220, 243, 205, 41, 165, 168, 159, 183, 224, 152, 208]",True,,,3.0,0.0,1065.7545211259276,f,"[0.30000000000000004, 0.099999999999999]","[[0.30000000000000004, -0.30000000000000004], [0.099999999999999, -0.099999999999999]]",598.1654787901789,f,practice,1.0,,,
,html-keyboard-response,7,57346,0.0-2.0-1.0-1.2,f078aa2862041786868ef9f2ad23336df49386eb98fe8259951830bdf7c3dbfd,"[170, 33, 87, 223, 61, 66, 125, 108, 2, 36, 135, 18, 29, 75, 206, 224, 227, 1, 137, 46, 46, 220, 243, 205, 41, 165, 168, 159, 183, 224, 152, 208]",True,,,,,,,,,,,,,"<div style=""width:150px;height:56px;font-size:30px;text-align:center;"">correct!</div>",,
,p5vs_yn,8,60195,0.0-2.0-1.0-0.3,f078aa2862041786868ef9f2ad23336df49386eb98fe8259951830bdf7c3dbfd,"[170, 33, 87, 223, 61, 66, 125, 108, 2, 36, 135, 18, 29, 75, 206, 224, 227, 1, 137, 46, 46, 220, 243, 205, 41, 165, 168, 159, 183, 224, 152, 208]",True,,,3.0,1.0,1284.0704728849232,j,"[-0.099999999999999, -0.30000000000000004]","[[0.30000000000000004, 0.30000000000000004], [-0.30000000000000004, -0.30000000000000004]]",355.06952716968954,j,practice,1.0,,,
,html-keyboard-response,9,61196,0.0-2.0-1.0-1.3,f078aa2862041786868ef9f2ad23336df49386eb98fe8259951830bdf7c3dbfd,"[170, 33, 87, 223, 61, 66, 125, 108, 2, 36, 135, 18, 29, 75, 206, 224, 227, 1, 137, 46, 46, 220, 243, 205, 41, 165, 168, 159, 183, 224, 152, 208]",True,,,,,,,,,,,,,"<div style=""width:150px;height:56px;font-size:30px;text-align:center;"">correct!</div>",,
,p5vs_yn,10,64163,0.0-2.0-1.0-0.4,f078aa2862041786868ef9f2ad23336df49386eb98fe8259951830bdf7c3dbfd,"[170, 33, 87, 223, 61, 66, 125, 108, 2, 36, 135, 18, 29, 75, 206, 224, 227, 1, 137, 46, 46, 220, 243, 205, 41, 165, 168, 159, 183, 224, 152, 208]",True,,,3.0,1.0,1035.2875007782131,j,"[-0.099999999999999, -0.30000000000000004]","[[-0.099999999999999, -0.099999999999999], [0.099999999999999, 0.30000000000000004]]",726.4874991960824,j,practice,1.0,,,
,html-keyboard-response,11,65164,0.0-2.0-1.0-1.4,f078aa2862041786868ef9f2ad23336df49386eb98fe8259951830bdf7c3dbfd,"[170, 33, 87, 223, 61, 66, 125, 108, 2, 36, 135, 18, 29, 75, 206, 224, 227, 1, 137, 46, 46, 220, 243, 205, 41, 165, 168, 159, 183, 224, 152, 208]",True,,,,,,,,,,,,,"<div style=""width:150px;height:56px;font-size:30px;text-align:center;"">correct!</div>",,
,p5vs_yn,12,67962,0.0-2.0-1.0-0.5,f078aa2862041786868ef9f2ad23336df49386eb98fe8259951830bdf7c3dbfd,"[170, 33, 87, 223, 61, 66, 125, 108, 2, 36, 135, 18, 29, 75, 206, 224, 227, 1, 137, 46, 46, 220, 243, 205, 41, 165, 168, 159, 183, 224, 152, 208]",True,,,3.0,0.0,893.5175090562552,f,"[-0.099999999999999, 0.099999999999999]","[[0.099999999999999, -0.30000000000000004], [0.30000000000000004, 0.099999999999999]]",687.5474909320474,f,practice,1.0,,,
,html-keyboard-response,13,68963,0.0-2.0-1.0-1.5,f078aa2862041786868ef9f2ad23336df49386eb98fe8259951830bdf7c3dbfd,"[170, 33, 87, 223, 61, 66, 125, 108, 2, 36, 135, 18, 29, 75, 206, 224, 227, 1, 137, 46, 46, 220, 243, 205, 41, 165, 168, 159, 183, 224, 152, 208]",True,,,,,,,,,,,,,"<div style=""width:150px;height:56px;font-size:30px;text-align:center;"">correct!</div>",,
,instructions,14,83627,0.0-3.0,f078aa2862041786868ef9f2ad23336df49386eb98fe8259951830bdf7c3dbfd,"[170, 33, 87, 223, 61, 66, 125, 108, 2, 36, 135, 18, 29, 75, 206, 224, 227, 1, 137, 46, 46, 220, 243, 205, 41, 165, 168, 159, 183, 224, 152, 208]",True,"[{""page_index"":0,""viewing_time"":10913.750000065193},{""page_index"":1,""viewing_time"":3744.249999988824}]",14658.820000011474,,,,,,,,,,,,,
